"","Condition","Subject","Order","Phase","Block","Trial","Task_Relevant_Context","Frequency","Congruency","ACC","RT"
"1","Object",1,"100-0","1","1",1,"100% Con","biased","con",1,949
"2","Object",1,"100-0","1","1",2,"100% Con","biased","con",1,532
"3","Object",1,"100-0","1","1",3,"100% Con","biased","inc",1,706
"4","Object",1,"100-0","1","1",4,"100% Con","biased","inc",1,1991
"5","Object",1,"100-0","1","1",5,"100% Con","biased","con",1,553
"6","Object",1,"100-0","1","1",6,"100% Con","unbiased","inc",1,683
"7","Object",1,"100-0","1","1",7,"100% Con","unbiased","con",1,528
"8","Object",1,"100-0","1","1",8,"100% Con","biased","con",1,534
"9","Object",1,"100-0","1","1",9,"100% Con","unbiased","con",1,466
"10","Object",1,"100-0","1","1",10,"100% Con","unbiased","inc",1,527
"11","Object",1,"100-0","1","1",11,"100% Con","biased","inc",1,620
"12","Object",1,"100-0","1","1",13,"100% Con","biased","inc",1,645
"13","Object",1,"100-0","1","1",14,"100% Con","unbiased","con",1,488
"14","Object",1,"100-0","1","1",15,"100% Con","biased","con",1,493
"15","Object",1,"100-0","1","1",16,"100% Con","biased","con",1,503
"16","Object",1,"100-0","1","1",17,"100% Con","biased","con",1,526
"17","Object",1,"100-0","1","1",18,"100% Con","unbiased","inc",1,462
"18","Object",1,"100-0","1","1",19,"100% Con","biased","inc",1,549
"19","Object",1,"100-0","1","1",20,"100% Con","biased","inc",1,530
"20","Object",1,"100-0","1","1",21,"100% Con","biased","con",1,394
"21","Object",1,"100-0","1","1",22,"100% Con","biased","inc",1,596
"22","Object",1,"100-0","1","1",23,"100% Con","unbiased","con",1,415
"23","Object",1,"100-0","1","1",25,"100% Con","biased","inc",1,605
"24","Object",1,"100-0","1","1",26,"100% Con","unbiased","inc",0,413
"25","Object",1,"100-0","1","1",27,"100% Con","biased","inc",1,526
"26","Object",1,"100-0","1","1",28,"100% Con","unbiased","con",1,413
"27","Object",1,"100-0","1","1",29,"100% Con","unbiased","inc",1,600
"28","Object",1,"100-0","1","1",30,"100% Con","unbiased","inc",1,521
"29","Object",1,"100-0","1","1",31,"100% Con","unbiased","con",1,441
"30","Object",1,"100-0","1","1",32,"100% Con","biased","inc",1,534
"31","Object",1,"100-0","1","1",33,"100% Con","biased","con",1,460
"32","Object",1,"100-0","1","1",34,"100% Con","biased","inc",1,552
"33","Object",1,"100-0","1","1",35,"100% Con","biased","con",1,367
"34","Object",1,"100-0","1","1",36,"100% Con","biased","con",1,438
"35","Object",1,"100-0","1","1",38,"100% Con","biased","con",1,498
"36","Object",1,"100-0","1","1",39,"100% Con","biased","inc",0,485
"37","Object",1,"100-0","1","1",40,"100% Con","biased","inc",1,551
"38","Object",1,"100-0","1","1",41,"100% Con","biased","con",1,481
"39","Object",1,"100-0","1","1",42,"100% Con","biased","con",1,439
"40","Object",1,"100-0","1","1",43,"100% Con","unbiased","con",1,500
"41","Object",1,"100-0","1","1",44,"100% Con","unbiased","con",1,460
"42","Object",1,"100-0","1","1",45,"100% Con","biased","con",1,459
"43","Object",1,"100-0","1","1",46,"100% Con","unbiased","inc",0,464
"44","Object",1,"100-0","1","1",47,"100% Con","biased","inc",1,618
"45","Object",1,"100-0","1","1",48,"100% Con","biased","inc",1,589
"46","Object",1,"100-0","1","1",49,"100% Con","biased","con",1,504
"47","Object",1,"100-0","1","1",50,"100% Con","biased","inc",1,983
"48","Object",1,"100-0","1","1",52,"100% Con","unbiased","inc",1,588
"49","Object",1,"100-0","1","1",53,"100% Con","biased","con",1,488
"50","Object",1,"100-0","1","1",54,"100% Con","biased","inc",1,504
"51","Object",1,"100-0","1","1",55,"100% Con","unbiased","con",1,466
"52","Object",1,"100-0","1","1",56,"100% Con","biased","inc",1,860
"53","Object",1,"100-0","1","1",57,"100% Con","biased","inc",1,552
"54","Object",1,"100-0","1","1",58,"100% Con","unbiased","con",1,484
"55","Object",1,"100-0","1","1",59,"100% Con","biased","inc",1,955
"56","Object",1,"100-0","1","1",60,"100% Con","biased","con",1,845
"57","Object",1,"100-0","1","1",61,"100% Con","biased","con",1,591
"58","Object",1,"100-0","1","1",62,"100% Con","unbiased","inc",1,531
"59","Object",1,"100-0","1","1",64,"100% Con","unbiased","inc",1,583
"60","Object",1,"100-0","1","1",65,"100% Con","biased","con",1,556
"61","Object",1,"100-0","1","1",66,"100% Con","unbiased","con",1,489
"62","Object",1,"100-0","1","1",67,"100% Con","unbiased","inc",1,754
"63","Object",1,"100-0","1","1",68,"100% Con","biased","inc",1,645
"64","Object",1,"100-0","1","1",69,"100% Con","biased","inc",1,687
"65","Object",1,"100-0","1","1",70,"100% Con","unbiased","con",1,507
"66","Object",1,"100-0","1","1",71,"100% Con","biased","con",1,508
"67","Object",1,"100-0","1","1",72,"100% Con","biased","con",1,485
"68","Object",1,"100-0","1","1",73,"100% Con","biased","inc",1,556
"69","Object",1,"100-0","1","1",74,"100% Con","biased","con",1,457
"70","Object",1,"100-0","1","1",75,"100% Con","unbiased","inc",1,599
"71","Object",1,"100-0","1","1",77,"100% Con","biased","inc",1,649
"72","Object",1,"100-0","1","1",78,"100% Con","biased","con",1,440
"73","Object",1,"100-0","1","2",79,"100% Con","biased","con",1,482
"74","Object",1,"100-0","1","2",80,"100% Con","biased","inc",1,470
"75","Object",1,"100-0","1","2",81,"100% Con","biased","con",1,479
"76","Object",1,"100-0","1","2",82,"100% Con","unbiased","con",1,463
"77","Object",1,"100-0","1","2",83,"100% Con","unbiased","con",1,486
"78","Object",1,"100-0","1","2",84,"100% Con","unbiased","inc",1,615
"79","Object",1,"100-0","1","2",85,"100% Con","biased","inc",1,624
"80","Object",1,"100-0","1","2",86,"100% Con","biased","inc",1,601
"81","Object",1,"100-0","1","2",87,"100% Con","biased","con",1,595
"82","Object",1,"100-0","1","2",89,"100% Con","biased","con",1,879
"83","Object",1,"100-0","1","2",90,"100% Con","unbiased","inc",0,438
"84","Object",1,"100-0","1","2",91,"100% Con","biased","inc",1,594
"85","Object",1,"100-0","1","2",92,"100% Con","unbiased","inc",1,529
"86","Object",1,"100-0","1","2",93,"100% Con","biased","inc",1,527
"87","Object",1,"100-0","1","2",94,"100% Con","biased","con",1,576
"88","Object",1,"100-0","1","2",95,"100% Con","unbiased","con",1,619
"89","Object",1,"100-0","1","2",96,"100% Con","biased","inc",1,505
"90","Object",1,"100-0","1","2",97,"100% Con","unbiased","con",1,481
"91","Object",1,"100-0","1","2",98,"100% Con","biased","con",1,506
"92","Object",1,"100-0","1","2",99,"100% Con","biased","con",1,506
"93","Object",1,"100-0","1","2",100,"100% Con","biased","con",1,529
"94","Object",1,"100-0","1","2",101,"100% Con","biased","inc",1,1160
"95","Object",1,"100-0","1","2",102,"100% Con","biased","inc",1,595
"96","Object",1,"100-0","1","2",104,"100% Con","unbiased","inc",1,719
"97","Object",1,"100-0","1","2",105,"100% Con","biased","con",1,577
"98","Object",1,"100-0","1","2",106,"100% Con","unbiased","inc",1,617
"99","Object",1,"100-0","1","2",107,"100% Con","unbiased","con",1,482
"100","Object",1,"100-0","1","2",108,"100% Con","biased","inc",1,702
"101","Object",1,"100-0","1","2",109,"100% Con","biased","con",1,665
"102","Object",1,"100-0","1","2",110,"100% Con","biased","inc",1,799
"103","Object",1,"100-0","1","2",111,"100% Con","biased","con",1,488
"104","Object",1,"100-0","1","2",113,"100% Con","biased","inc",1,633
"105","Object",1,"100-0","1","2",114,"100% Con","biased","con",1,483
"106","Object",1,"100-0","1","2",115,"100% Con","unbiased","con",1,549
"107","Object",1,"100-0","1","2",116,"100% Con","biased","inc",1,600
"108","Object",1,"100-0","1","2",117,"100% Con","unbiased","inc",1,573
"109","Object",1,"100-0","1","2",118,"100% Con","unbiased","inc",1,547
"110","Object",1,"100-0","1","2",119,"100% Con","biased","inc",1,575
"111","Object",1,"100-0","1","2",120,"100% Con","biased","inc",1,565
"112","Object",1,"100-0","1","2",121,"100% Con","biased","inc",1,573
"113","Object",1,"100-0","1","2",122,"100% Con","unbiased","con",1,484
"114","Object",1,"100-0","1","2",123,"100% Con","biased","con",1,595
"115","Object",1,"100-0","1","2",124,"100% Con","biased","con",1,505
"116","Object",1,"100-0","1","2",125,"100% Con","unbiased","inc",1,774
"117","Object",1,"100-0","1","2",126,"100% Con","biased","con",1,647
"118","Object",1,"100-0","1","2",127,"100% Con","biased","con",1,558
"119","Object",1,"100-0","1","2",128,"100% Con","unbiased","con",1,511
"120","Object",1,"100-0","1","2",130,"100% Con","biased","inc",1,3064
"121","Object",1,"100-0","1","2",131,"100% Con","unbiased","con",1,706
"122","Object",1,"100-0","1","2",132,"100% Con","biased","con",1,529
"123","Object",1,"100-0","1","2",133,"100% Con","biased","inc",1,574
"124","Object",1,"100-0","1","2",134,"100% Con","biased","con",1,487
"125","Object",1,"100-0","1","2",135,"100% Con","biased","con",1,575
"126","Object",1,"100-0","1","2",136,"100% Con","biased","inc",1,620
"127","Object",1,"100-0","1","2",137,"100% Con","biased","inc",1,622
"128","Object",1,"100-0","1","2",138,"100% Con","unbiased","inc",1,577
"129","Object",1,"100-0","1","2",140,"100% Con","unbiased","inc",1,697
"130","Object",1,"100-0","1","2",141,"100% Con","biased","inc",1,548
"131","Object",1,"100-0","1","2",142,"100% Con","unbiased","con",1,508
"132","Object",1,"100-0","1","2",143,"100% Con","biased","con",1,532
"133","Object",1,"100-0","1","2",144,"100% Con","unbiased","con",1,525
"134","Object",1,"100-0","1","2",145,"100% Con","biased","con",1,530
"135","Object",1,"100-0","1","2",146,"100% Con","biased","inc",1,637
"136","Object",1,"100-0","1","2",147,"100% Con","unbiased","inc",1,550
"137","Object",1,"100-0","1","2",148,"100% Con","biased","con",1,525
"138","Object",1,"100-0","1","2",149,"100% Con","biased","inc",1,643
"139","Object",1,"100-0","1","2",150,"100% Con","biased","inc",1,623
"140","Object",1,"100-0","1","2",151,"100% Con","biased","con",1,553
"141","Object",1,"100-0","1","2",152,"100% Con","unbiased","con",1,483
"142","Object",1,"100-0","1","2",153,"100% Con","unbiased","inc",1,598
"143","Object",1,"100-0","1","2",155,"100% Con","biased","inc",1,598
"144","Object",1,"100-0","1","2",156,"100% Con","biased","con",1,532
"145","Object",1,"100-0","2","1",158,"0% Con","biased","con",1,908
"146","Object",1,"100-0","2","1",159,"0% Con","biased","inc",1,571
"147","Object",1,"100-0","2","1",160,"0% Con","biased","inc",1,598
"148","Object",1,"100-0","2","1",161,"0% Con","unbiased","con",1,816
"149","Object",1,"100-0","2","1",162,"0% Con","unbiased","inc",1,556
"150","Object",1,"100-0","2","1",163,"0% Con","biased","con",1,556
"151","Object",1,"100-0","2","1",164,"0% Con","biased","inc",1,530
"152","Object",1,"100-0","2","1",165,"0% Con","unbiased","con",1,550
"153","Object",1,"100-0","2","1",166,"0% Con","biased","con",1,621
"154","Object",1,"100-0","2","1",167,"0% Con","biased","inc",1,644
"155","Object",1,"100-0","2","1",168,"0% Con","biased","con",1,552
"156","Object",1,"100-0","2","1",170,"0% Con","unbiased","inc",1,1098
"157","Object",1,"100-0","2","1",171,"0% Con","biased","con",1,981
"158","Object",1,"100-0","2","1",172,"0% Con","biased","inc",1,977
"159","Object",1,"100-0","2","1",173,"0% Con","unbiased","inc",1,799
"160","Object",1,"100-0","2","1",174,"0% Con","biased","inc",1,621
"161","Object",1,"100-0","2","1",175,"0% Con","unbiased","con",1,508
"162","Object",1,"100-0","2","1",176,"0% Con","biased","inc",1,641
"163","Object",1,"100-0","2","1",177,"0% Con","biased","con",1,958
"164","Object",1,"100-0","2","1",178,"0% Con","biased","inc",1,624
"165","Object",1,"100-0","2","1",179,"0% Con","biased","con",1,616
"166","Object",1,"100-0","2","1",180,"0% Con","unbiased","inc",1,843
"167","Object",1,"100-0","2","1",182,"0% Con","unbiased","con",1,590
"168","Object",1,"100-0","2","1",183,"0% Con","biased","con",1,708
"169","Object",1,"100-0","2","1",184,"0% Con","biased","inc",1,420
"170","Object",1,"100-0","2","1",185,"0% Con","unbiased","con",1,466
"171","Object",1,"100-0","2","1",186,"0% Con","unbiased","inc",0,506
"172","Object",1,"100-0","2","1",187,"0% Con","biased","inc",1,664
"173","Object",1,"100-0","2","1",188,"0% Con","biased","inc",1,501
"174","Object",1,"100-0","2","1",189,"0% Con","unbiased","inc",1,625
"175","Object",1,"100-0","2","1",190,"0% Con","biased","con",1,712
"176","Object",1,"100-0","2","1",192,"0% Con","biased","con",1,828
"177","Object",1,"100-0","2","1",193,"0% Con","biased","inc",1,685
"178","Object",1,"100-0","2","1",194,"0% Con","unbiased","con",1,665
"179","Object",1,"100-0","2","1",195,"0% Con","biased","con",1,1291
"180","Object",1,"100-0","2","1",196,"0% Con","biased","con",1,733
"181","Object",1,"100-0","2","1",197,"0% Con","unbiased","inc",1,625
"182","Object",1,"100-0","2","1",198,"0% Con","biased","inc",1,617
"183","Object",1,"100-0","2","1",199,"0% Con","biased","con",1,705
"184","Object",1,"100-0","2","1",200,"0% Con","unbiased","con",1,623
"185","Object",1,"100-0","2","1",201,"0% Con","biased","con",1,685
"186","Object",1,"100-0","2","1",202,"0% Con","biased","con",1,550
"187","Object",1,"100-0","2","1",203,"0% Con","unbiased","inc",1,687
"188","Object",1,"100-0","2","1",204,"0% Con","biased","inc",1,595
"189","Object",1,"100-0","2","1",206,"0% Con","unbiased","con",1,510
"190","Object",1,"100-0","2","1",207,"0% Con","biased","con",1,639
"191","Object",1,"100-0","2","1",208,"0% Con","biased","inc",1,736
"192","Object",1,"100-0","2","1",209,"0% Con","biased","inc",1,707
"193","Object",1,"100-0","2","1",210,"0% Con","unbiased","inc",1,575
"194","Object",1,"100-0","2","1",211,"0% Con","unbiased","inc",1,771
"195","Object",1,"100-0","2","1",212,"0% Con","biased","con",1,599
"196","Object",1,"100-0","2","1",213,"0% Con","unbiased","con",1,552
"197","Object",1,"100-0","2","1",214,"0% Con","unbiased","con",1,618
"198","Object",1,"100-0","2","1",215,"0% Con","biased","inc",1,1409
"199","Object",1,"100-0","2","1",216,"0% Con","biased","inc",1,690
"200","Object",1,"100-0","2","1",217,"0% Con","biased","con",1,755
"201","Object",1,"100-0","2","1",218,"0% Con","biased","con",1,800
"202","Object",1,"100-0","2","1",219,"0% Con","biased","con",1,846
"203","Object",1,"100-0","2","1",220,"0% Con","biased","inc",1,933
"204","Object",1,"100-0","2","1",222,"0% Con","biased","inc",1,518
"205","Object",1,"100-0","2","1",223,"0% Con","unbiased","con",1,436
"206","Object",1,"100-0","2","1",224,"0% Con","unbiased","inc",0,510
"207","Object",1,"100-0","2","1",225,"0% Con","biased","con",1,444
"208","Object",1,"100-0","2","1",226,"0% Con","biased","con",1,551
"209","Object",1,"100-0","2","1",227,"0% Con","biased","con",1,551
"210","Object",1,"100-0","2","1",228,"0% Con","unbiased","con",1,600
"211","Object",1,"100-0","2","1",229,"0% Con","unbiased","inc",1,552
"212","Object",1,"100-0","2","1",230,"0% Con","biased","inc",1,615
"213","Object",1,"100-0","2","1",231,"0% Con","biased","inc",1,596
"214","Object",1,"100-0","2","1",232,"0% Con","biased","inc",1,578
"215","Object",1,"100-0","2","1",233,"0% Con","biased","inc",1,778
"216","Object",1,"100-0","2","1",235,"0% Con","biased","con",1,514
"217","Object",1,"100-0","2","2",236,"0% Con","unbiased","inc",1,553
"218","Object",1,"100-0","2","2",237,"0% Con","unbiased","con",1,506
"219","Object",1,"100-0","2","2",238,"0% Con","biased","con",1,956
"220","Object",1,"100-0","2","2",239,"0% Con","biased","con",1,484
"221","Object",1,"100-0","2","2",240,"0% Con","biased","inc",1,601
"222","Object",1,"100-0","2","2",241,"0% Con","biased","con",1,846
"223","Object",1,"100-0","2","2",242,"0% Con","biased","inc",1,570
"224","Object",1,"100-0","2","2",244,"0% Con","unbiased","inc",1,645
"225","Object",1,"100-0","2","2",245,"0% Con","unbiased","con",1,459
"226","Object",1,"100-0","2","2",246,"0% Con","biased","con",1,644
"227","Object",1,"100-0","2","2",247,"0% Con","biased","inc",1,957
"228","Object",1,"100-0","2","2",248,"0% Con","biased","inc",1,554
"229","Object",1,"100-0","2","2",249,"0% Con","biased","con",1,548
"230","Object",1,"100-0","2","2",250,"0% Con","unbiased","con",1,507
"231","Object",1,"100-0","2","2",251,"0% Con","biased","inc",1,575
"232","Object",1,"100-0","2","2",252,"0% Con","biased","inc",1,664
"233","Object",1,"100-0","2","2",253,"0% Con","biased","inc",1,551
"234","Object",1,"100-0","2","2",254,"0% Con","biased","con",1,575
"235","Object",1,"100-0","2","2",255,"0% Con","unbiased","con",1,528
"236","Object",1,"100-0","2","2",256,"0% Con","biased","con",1,801
"237","Object",1,"100-0","2","2",258,"0% Con","unbiased","inc",1,1004
"238","Object",1,"100-0","2","2",259,"0% Con","biased","con",1,797
"239","Object",1,"100-0","2","2",260,"0% Con","unbiased","inc",1,709
"240","Object",1,"100-0","2","2",261,"0% Con","biased","inc",1,572
"241","Object",1,"100-0","2","2",262,"0% Con","biased","con",1,591
"242","Object",1,"100-0","2","2",263,"0% Con","biased","inc",1,576
"243","Object",1,"100-0","2","2",264,"0% Con","biased","con",1,576
"244","Object",1,"100-0","2","2",265,"0% Con","biased","inc",1,489
"245","Object",1,"100-0","2","2",266,"0% Con","unbiased","inc",1,529
"246","Object",1,"100-0","2","2",267,"0% Con","unbiased","con",1,469
"247","Object",1,"100-0","2","2",268,"0% Con","biased","con",1,559
"248","Object",1,"100-0","2","2",270,"0% Con","biased","inc",1,751
"249","Object",1,"100-0","2","2",271,"0% Con","unbiased","inc",1,458
"250","Object",1,"100-0","2","2",272,"0% Con","biased","inc",1,527
"251","Object",1,"100-0","2","2",273,"0% Con","biased","con",1,598
"252","Object",1,"100-0","2","2",274,"0% Con","unbiased","con",1,438
"253","Object",1,"100-0","2","2",275,"0% Con","biased","inc",1,578
"254","Object",1,"100-0","2","2",276,"0% Con","unbiased","con",1,463
"255","Object",1,"100-0","2","2",277,"0% Con","biased","con",1,662
"256","Object",1,"100-0","2","2",278,"0% Con","biased","inc",1,684
"257","Object",1,"100-0","2","2",279,"0% Con","biased","con",1,574
"258","Object",1,"100-0","2","2",280,"0% Con","biased","inc",1,731
"259","Object",1,"100-0","2","2",282,"0% Con","biased","con",1,987
"260","Object",1,"100-0","2","2",283,"0% Con","unbiased","con",1,464
"261","Object",1,"100-0","2","2",284,"0% Con","biased","con",1,503
"262","Object",1,"100-0","2","2",285,"0% Con","biased","inc",1,580
"263","Object",1,"100-0","2","2",286,"0% Con","unbiased","inc",1,556
"264","Object",1,"100-0","2","2",287,"0% Con","unbiased","inc",1,462
"265","Object",1,"100-0","2","2",288,"0% Con","biased","con",1,483
"266","Object",1,"100-0","2","2",289,"0% Con","biased","inc",1,576
"267","Object",1,"100-0","2","2",290,"0% Con","unbiased","con",1,572
"268","Object",1,"100-0","2","2",291,"0% Con","biased","inc",1,554
"269","Object",1,"100-0","2","2",292,"0% Con","biased","con",1,1225
"270","Object",1,"100-0","2","2",293,"0% Con","unbiased","con",1,527
"271","Object",1,"100-0","2","2",294,"0% Con","biased","inc",1,502
"272","Object",1,"100-0","2","2",296,"0% Con","biased","inc",1,787
"273","Object",1,"100-0","2","2",297,"0% Con","biased","con",1,665
"274","Object",1,"100-0","2","2",298,"0% Con","unbiased","inc",1,439
"275","Object",1,"100-0","2","2",299,"0% Con","unbiased","inc",1,600
"276","Object",1,"100-0","2","2",300,"0% Con","biased","con",1,643
"277","Object",1,"100-0","2","2",301,"0% Con","biased","con",1,531
"278","Object",1,"100-0","2","2",302,"0% Con","biased","inc",1,532
"279","Object",1,"100-0","2","2",303,"0% Con","biased","con",1,505
"280","Object",1,"100-0","2","2",304,"0% Con","biased","inc",1,506
"281","Object",1,"100-0","2","2",305,"0% Con","unbiased","con",1,598
"282","Object",1,"100-0","2","2",306,"0% Con","biased","inc",1,620
"283","Object",1,"100-0","2","2",307,"0% Con","unbiased","inc",1,601
"284","Object",1,"100-0","2","2",308,"0% Con","unbiased","con",1,550
"285","Object",1,"100-0","2","2",310,"0% Con","biased","inc",0,674
"286","Object",1,"100-0","2","2",311,"0% Con","unbiased","inc",1,570
"287","Object",1,"100-0","2","2",312,"0% Con","biased","con",1,752
"288","Object",1,"100-0","2","2",313,"0% Con","biased","con",1,595
"289","Object",2,"0-100","1","1",1,"0% Con","biased","con",1,2061
"290","Object",2,"0-100","1","1",2,"0% Con","unbiased","con",1,922
"291","Object",2,"0-100","1","1",3,"0% Con","biased","inc",1,827
"292","Object",2,"0-100","1","1",4,"0% Con","biased","con",1,1131
"293","Object",2,"0-100","1","1",5,"0% Con","unbiased","con",1,747
"294","Object",2,"0-100","1","1",6,"0% Con","unbiased","inc",1,795
"295","Object",2,"0-100","1","1",8,"0% Con","biased","con",1,1179
"296","Object",2,"0-100","1","1",9,"0% Con","biased","con",1,618
"297","Object",2,"0-100","1","1",10,"0% Con","biased","inc",1,1019
"298","Object",2,"0-100","1","1",11,"0% Con","biased","inc",1,842
"299","Object",2,"0-100","1","1",12,"0% Con","unbiased","inc",1,731
"300","Object",2,"0-100","1","1",13,"0% Con","biased","inc",0,619
"301","Object",2,"0-100","1","1",14,"0% Con","biased","inc",1,891
"302","Object",2,"0-100","1","1",15,"0% Con","biased","con",1,683
"303","Object",2,"0-100","1","1",16,"0% Con","biased","inc",1,1211
"304","Object",2,"0-100","1","1",17,"0% Con","biased","inc",1,765
"305","Object",2,"0-100","1","1",18,"0% Con","biased","inc",1,716
"306","Object",2,"0-100","1","1",19,"0% Con","biased","con",1,954
"307","Object",2,"0-100","1","1",20,"0% Con","unbiased","con",1,907
"308","Object",2,"0-100","1","1",22,"0% Con","unbiased","inc",1,723
"309","Object",2,"0-100","1","1",23,"0% Con","biased","con",1,811
"310","Object",2,"0-100","1","1",24,"0% Con","unbiased","inc",1,683
"311","Object",2,"0-100","1","1",25,"0% Con","biased","con",1,667
"312","Object",2,"0-100","1","1",26,"0% Con","unbiased","con",1,683
"313","Object",2,"0-100","1","1",27,"0% Con","unbiased","con",1,699
"314","Object",2,"0-100","1","1",28,"0% Con","biased","inc",0,508
"315","Object",2,"0-100","1","1",29,"0% Con","unbiased","inc",1,1195
"316","Object",2,"0-100","1","1",30,"0% Con","unbiased","con",1,571
"317","Object",2,"0-100","1","1",31,"0% Con","unbiased","inc",1,667
"318","Object",2,"0-100","1","1",32,"0% Con","biased","con",1,811
"319","Object",2,"0-100","1","1",34,"0% Con","biased","con",1,668
"320","Object",2,"0-100","1","1",35,"0% Con","biased","inc",1,732
"321","Object",2,"0-100","1","1",36,"0% Con","biased","inc",1,715
"322","Object",2,"0-100","1","1",37,"0% Con","biased","inc",1,730
"323","Object",2,"0-100","1","1",38,"0% Con","biased","con",1,700
"324","Object",2,"0-100","1","1",39,"0% Con","biased","con",1,586
"325","Object",2,"0-100","1","1",40,"0% Con","unbiased","inc",1,987
"326","Object",2,"0-100","1","1",41,"0% Con","biased","con",1,555
"327","Object",2,"0-100","1","1",42,"0% Con","biased","inc",1,603
"328","Object",2,"0-100","1","1",43,"0% Con","biased","inc",1,667
"329","Object",2,"0-100","1","1",44,"0% Con","biased","con",1,619
"330","Object",2,"0-100","1","1",45,"0% Con","biased","inc",1,828
"331","Object",2,"0-100","1","1",46,"0% Con","unbiased","con",1,555
"332","Object",2,"0-100","1","1",47,"0% Con","unbiased","con",1,699
"333","Object",2,"0-100","1","1",48,"0% Con","biased","con",1,588
"334","Object",2,"0-100","1","1",50,"0% Con","biased","inc",1,836
"335","Object",2,"0-100","1","1",51,"0% Con","biased","con",1,523
"336","Object",2,"0-100","1","1",52,"0% Con","unbiased","inc",1,667
"337","Object",2,"0-100","1","1",53,"0% Con","biased","inc",1,603
"338","Object",2,"0-100","1","1",54,"0% Con","unbiased","inc",1,635
"339","Object",2,"0-100","1","1",55,"0% Con","biased","inc",1,699
"340","Object",2,"0-100","1","1",56,"0% Con","biased","inc",1,715
"341","Object",2,"0-100","1","1",57,"0% Con","unbiased","con",1,523
"342","Object",2,"0-100","1","1",58,"0% Con","biased","con",1,604
"343","Object",2,"0-100","1","1",59,"0% Con","biased","con",1,570
"344","Object",2,"0-100","1","1",60,"0% Con","biased","con",1,603
"345","Object",2,"0-100","1","1",61,"0% Con","unbiased","inc",1,730
"346","Object",2,"0-100","1","1",62,"0% Con","biased","inc",1,587
"347","Object",2,"0-100","1","1",64,"0% Con","biased","con",1,619
"348","Object",2,"0-100","1","1",65,"0% Con","unbiased","con",1,524
"349","Object",2,"0-100","1","1",66,"0% Con","biased","con",1,619
"350","Object",2,"0-100","1","1",67,"0% Con","unbiased","inc",1,587
"351","Object",2,"0-100","1","1",68,"0% Con","biased","inc",1,731
"352","Object",2,"0-100","1","1",69,"0% Con","unbiased","inc",1,635
"353","Object",2,"0-100","1","1",70,"0% Con","biased","inc",1,650
"354","Object",2,"0-100","1","1",71,"0% Con","biased","inc",1,603
"355","Object",2,"0-100","1","1",73,"0% Con","unbiased","con",1,547
"356","Object",2,"0-100","1","1",74,"0% Con","unbiased","con",1,475
"357","Object",2,"0-100","1","1",75,"0% Con","biased","con",1,619
"358","Object",2,"0-100","1","1",76,"0% Con","biased","inc",1,732
"359","Object",2,"0-100","1","1",77,"0% Con","biased","con",1,572
"360","Object",2,"0-100","1","1",78,"0% Con","biased","con",1,778
"361","Object",2,"0-100","1","2",79,"0% Con","unbiased","con",1,731
"362","Object",2,"0-100","1","2",80,"0% Con","unbiased","inc",1,698
"363","Object",2,"0-100","1","2",81,"0% Con","biased","inc",1,619
"364","Object",2,"0-100","1","2",82,"0% Con","biased","inc",1,635
"365","Object",2,"0-100","1","2",83,"0% Con","biased","con",1,732
"366","Object",2,"0-100","1","2",84,"0% Con","biased","inc",1,1003
"367","Object",2,"0-100","1","2",85,"0% Con","biased","inc",1,715
"368","Object",2,"0-100","1","2",87,"0% Con","biased","con",1,604
"369","Object",2,"0-100","1","2",88,"0% Con","unbiased","inc",1,491
"370","Object",2,"0-100","1","2",89,"0% Con","biased","con",1,555
"371","Object",2,"0-100","1","2",90,"0% Con","unbiased","con",1,603
"372","Object",2,"0-100","1","2",91,"0% Con","biased","con",1,507
"373","Object",2,"0-100","1","2",92,"0% Con","biased","con",1,523
"374","Object",2,"0-100","1","2",93,"0% Con","biased","con",1,475
"375","Object",2,"0-100","1","2",94,"0% Con","biased","inc",1,748
"376","Object",2,"0-100","1","2",95,"0% Con","biased","con",1,635
"377","Object",2,"0-100","1","2",96,"0% Con","unbiased","con",1,492
"378","Object",2,"0-100","1","2",97,"0% Con","unbiased","con",1,492
"379","Object",2,"0-100","1","2",98,"0% Con","biased","inc",0,539
"380","Object",2,"0-100","1","2",99,"0% Con","biased","inc",1,795
"381","Object",2,"0-100","1","2",100,"0% Con","unbiased","inc",1,635
"382","Object",2,"0-100","1","2",101,"0% Con","unbiased","inc",1,619
"383","Object",2,"0-100","1","2",103,"0% Con","biased","con",1,699
"384","Object",2,"0-100","1","2",104,"0% Con","biased","inc",1,635
"385","Object",2,"0-100","1","2",105,"0% Con","biased","con",1,555
"386","Object",2,"0-100","1","2",106,"0% Con","biased","inc",1,668
"387","Object",2,"0-100","1","2",107,"0% Con","biased","inc",1,731
"388","Object",2,"0-100","1","2",108,"0% Con","unbiased","con",1,524
"389","Object",2,"0-100","1","2",109,"0% Con","biased","inc",1,858
"390","Object",2,"0-100","1","2",110,"0% Con","biased","con",1,763
"391","Object",2,"0-100","1","2",111,"0% Con","unbiased","con",1,699
"392","Object",2,"0-100","1","2",112,"0% Con","unbiased","inc",1,635
"393","Object",2,"0-100","1","2",114,"0% Con","biased","con",1,563
"394","Object",2,"0-100","1","2",115,"0% Con","biased","con",1,732
"395","Object",2,"0-100","1","2",116,"0% Con","unbiased","inc",1,779
"396","Object",2,"0-100","1","2",117,"0% Con","biased","inc",1,683
"397","Object",2,"0-100","1","2",118,"0% Con","unbiased","inc",1,683
"398","Object",2,"0-100","1","2",119,"0% Con","biased","inc",1,731
"399","Object",2,"0-100","1","2",120,"0% Con","biased","con",1,570
"400","Object",2,"0-100","1","2",121,"0% Con","biased","inc",1,699
"401","Object",2,"0-100","1","2",122,"0% Con","biased","con",1,587
"402","Object",2,"0-100","1","2",123,"0% Con","unbiased","inc",1,540
"403","Object",2,"0-100","1","2",124,"0% Con","biased","inc",1,698
"404","Object",2,"0-100","1","2",126,"0% Con","biased","con",1,572
"405","Object",2,"0-100","1","2",127,"0% Con","unbiased","con",1,571
"406","Object",2,"0-100","1","2",128,"0% Con","unbiased","con",1,587
"407","Object",2,"0-100","1","2",129,"0% Con","biased","inc",0,539
"408","Object",2,"0-100","1","2",130,"0% Con","biased","con",1,731
"409","Object",2,"0-100","1","2",131,"0% Con","biased","inc",1,779
"410","Object",2,"0-100","1","2",132,"0% Con","unbiased","inc",1,619
"411","Object",2,"0-100","1","2",133,"0% Con","biased","inc",1,586
"412","Object",2,"0-100","1","2",134,"0% Con","biased","con",1,810
"413","Object",2,"0-100","1","2",135,"0% Con","biased","con",1,667
"414","Object",2,"0-100","1","2",136,"0% Con","biased","con",1,570
"415","Object",2,"0-100","1","2",137,"0% Con","biased","inc",1,763
"416","Object",2,"0-100","1","2",138,"0% Con","biased","con",1,571
"417","Object",2,"0-100","1","2",139,"0% Con","unbiased","con",1,778
"418","Object",2,"0-100","1","2",140,"0% Con","biased","inc",1,731
"419","Object",2,"0-100","1","2",142,"0% Con","unbiased","inc",1,915
"420","Object",2,"0-100","1","2",143,"0% Con","unbiased","con",1,555
"421","Object",2,"0-100","1","2",144,"0% Con","unbiased","con",1,555
"422","Object",2,"0-100","1","2",145,"0% Con","biased","inc",1,603
"423","Object",2,"0-100","1","2",146,"0% Con","biased","con",1,827
"424","Object",2,"0-100","1","2",147,"0% Con","biased","con",1,635
"425","Object",2,"0-100","1","2",148,"0% Con","unbiased","con",1,571
"426","Object",2,"0-100","1","2",149,"0% Con","biased","inc",1,635
"427","Object",2,"0-100","1","2",150,"0% Con","biased","inc",1,555
"428","Object",2,"0-100","1","2",151,"0% Con","biased","inc",1,619
"429","Object",2,"0-100","1","2",152,"0% Con","biased","con",1,619
"430","Object",2,"0-100","1","2",153,"0% Con","unbiased","inc",1,588
"431","Object",2,"0-100","1","2",154,"0% Con","biased","con",1,571
"432","Object",2,"0-100","1","2",156,"0% Con","unbiased","inc",1,643
"433","Object",2,"0-100","2","1",158,"100% Con","unbiased","con",1,741
"434","Object",2,"0-100","2","1",159,"100% Con","biased","con",1,650
"435","Object",2,"0-100","2","1",160,"100% Con","biased","con",1,603
"436","Object",2,"0-100","2","1",161,"100% Con","unbiased","inc",1,667
"437","Object",2,"0-100","2","1",162,"100% Con","unbiased","con",1,556
"438","Object",2,"0-100","2","1",163,"100% Con","biased","inc",1,714
"439","Object",2,"0-100","2","1",164,"100% Con","biased","inc",1,731
"440","Object",2,"0-100","2","1",165,"100% Con","biased","inc",1,747
"441","Object",2,"0-100","2","1",166,"100% Con","biased","inc",1,811
"442","Object",2,"0-100","2","1",168,"100% Con","biased","con",1,619
"443","Object",2,"0-100","2","1",169,"100% Con","unbiased","inc",1,634
"444","Object",2,"0-100","2","1",170,"100% Con","biased","con",1,571
"445","Object",2,"0-100","2","1",171,"100% Con","biased","con",1,476
"446","Object",2,"0-100","2","1",172,"100% Con","unbiased","inc",1,747
"447","Object",2,"0-100","2","1",173,"100% Con","unbiased","con",1,587
"448","Object",2,"0-100","2","1",174,"100% Con","biased","con",1,554
"449","Object",2,"0-100","2","1",175,"100% Con","biased","inc",1,587
"450","Object",2,"0-100","2","1",176,"100% Con","unbiased","con",1,1051
"451","Object",2,"0-100","2","1",177,"100% Con","biased","inc",1,731
"452","Object",2,"0-100","2","1",178,"100% Con","biased","con",1,699
"453","Object",2,"0-100","2","1",180,"100% Con","unbiased","inc",1,668
"454","Object",2,"0-100","2","1",181,"100% Con","biased","inc",1,666
"455","Object",2,"0-100","2","1",182,"100% Con","biased","inc",1,635
"456","Object",2,"0-100","2","1",183,"100% Con","biased","con",1,619
"457","Object",2,"0-100","2","1",184,"100% Con","biased","inc",1,602
"458","Object",2,"0-100","2","1",185,"100% Con","biased","inc",0,507
"459","Object",2,"0-100","2","1",186,"100% Con","unbiased","con",1,620
"460","Object",2,"0-100","2","1",187,"100% Con","biased","con",1,684
"461","Object",2,"0-100","2","1",188,"100% Con","unbiased","con",1,649
"462","Object",2,"0-100","2","1",189,"100% Con","biased","con",1,682
"463","Object",2,"0-100","2","1",191,"100% Con","biased","inc",1,660
"464","Object",2,"0-100","2","1",192,"100% Con","biased","con",1,506
"465","Object",2,"0-100","2","1",193,"100% Con","biased","con",1,523
"466","Object",2,"0-100","2","1",194,"100% Con","unbiased","inc",1,587
"467","Object",2,"0-100","2","1",195,"100% Con","unbiased","inc",1,635
"468","Object",2,"0-100","2","1",196,"100% Con","biased","inc",1,571
"469","Object",2,"0-100","2","1",197,"100% Con","unbiased","con",1,570
"470","Object",2,"0-100","2","1",198,"100% Con","biased","inc",1,667
"471","Object",2,"0-100","2","1",199,"100% Con","unbiased","inc",1,523
"472","Object",2,"0-100","2","1",200,"100% Con","biased","con",1,554
"473","Object",2,"0-100","2","1",201,"100% Con","biased","con",1,587
"474","Object",2,"0-100","2","1",202,"100% Con","biased","con",1,587
"475","Object",2,"0-100","2","1",203,"100% Con","unbiased","con",1,555
"476","Object",2,"0-100","2","1",204,"100% Con","biased","inc",1,603
"477","Object",2,"0-100","2","1",205,"100% Con","biased","inc",1,762
"478","Object",2,"0-100","2","1",206,"100% Con","biased","inc",1,860
"479","Object",2,"0-100","2","1",208,"100% Con","biased","con",1,587
"480","Object",2,"0-100","2","1",209,"100% Con","unbiased","inc",1,636
"481","Object",2,"0-100","2","1",210,"100% Con","biased","inc",1,763
"482","Object",2,"0-100","2","1",211,"100% Con","biased","con",1,555
"483","Object",2,"0-100","2","1",212,"100% Con","biased","inc",1,571
"484","Object",2,"0-100","2","1",213,"100% Con","unbiased","con",1,570
"485","Object",2,"0-100","2","1",214,"100% Con","unbiased","con",1,474
"486","Object",2,"0-100","2","1",215,"100% Con","biased","inc",1,603
"487","Object",2,"0-100","2","1",217,"100% Con","unbiased","inc",1,627
"488","Object",2,"0-100","2","1",218,"100% Con","biased","inc",1,619
"489","Object",2,"0-100","2","1",219,"100% Con","biased","con",1,586
"490","Object",2,"0-100","2","1",220,"100% Con","biased","con",1,475
"491","Object",2,"0-100","2","1",221,"100% Con","biased","con",1,491
"492","Object",2,"0-100","2","1",222,"100% Con","unbiased","inc",1,650
"493","Object",2,"0-100","2","1",223,"100% Con","unbiased","inc",1,491
"494","Object",2,"0-100","2","1",224,"100% Con","unbiased","inc",1,587
"495","Object",2,"0-100","2","1",225,"100% Con","biased","con",1,522
"496","Object",2,"0-100","2","1",226,"100% Con","biased","inc",1,619
"497","Object",2,"0-100","2","1",227,"100% Con","biased","inc",1,586
"498","Object",2,"0-100","2","1",228,"100% Con","biased","con",1,556
"499","Object",2,"0-100","2","1",229,"100% Con","biased","inc",1,587
"500","Object",2,"0-100","2","1",230,"100% Con","biased","inc",1,507
"501","Object",2,"0-100","2","1",231,"100% Con","biased","con",1,667
"502","Object",2,"0-100","2","1",232,"100% Con","unbiased","con",1,522
"503","Object",2,"0-100","2","1",233,"100% Con","unbiased","con",1,491
"504","Object",2,"0-100","2","1",235,"100% Con","biased","con",1,499
"505","Object",2,"0-100","2","2",236,"100% Con","biased","inc",1,619
"506","Object",2,"0-100","2","2",237,"100% Con","biased","inc",1,619
"507","Object",2,"0-100","2","2",238,"100% Con","unbiased","con",1,587
"508","Object",2,"0-100","2","2",239,"100% Con","unbiased","inc",1,538
"509","Object",2,"0-100","2","2",240,"100% Con","biased","con",1,539
"510","Object",2,"0-100","2","2",241,"100% Con","biased","inc",1,523
"511","Object",2,"0-100","2","2",243,"100% Con","biased","con",1,483
"512","Object",2,"0-100","2","2",244,"100% Con","biased","inc",1,506
"513","Object",2,"0-100","2","2",245,"100% Con","unbiased","inc",1,490
"514","Object",2,"0-100","2","2",246,"100% Con","biased","con",1,570
"515","Object",2,"0-100","2","2",247,"100% Con","biased","con",1,474
"516","Object",2,"0-100","2","2",248,"100% Con","unbiased","con",1,491
"517","Object",2,"0-100","2","2",249,"100% Con","unbiased","inc",1,507
"518","Object",2,"0-100","2","2",250,"100% Con","biased","con",1,443
"519","Object",2,"0-100","2","2",251,"100% Con","biased","inc",1,619
"520","Object",2,"0-100","2","2",252,"100% Con","unbiased","con",1,474
"521","Object",2,"0-100","2","2",253,"100% Con","biased","con",1,458
"522","Object",2,"0-100","2","2",254,"100% Con","unbiased","con",1,571
"523","Object",2,"0-100","2","2",255,"100% Con","unbiased","inc",1,667
"524","Object",2,"0-100","2","2",256,"100% Con","biased","inc",1,507
"525","Object",2,"0-100","2","2",257,"100% Con","biased","inc",1,523
"526","Object",2,"0-100","2","2",258,"100% Con","biased","inc",1,618
"527","Object",2,"0-100","2","2",259,"100% Con","biased","con",1,570
"528","Object",2,"0-100","2","2",261,"100% Con","biased","con",1,539
"529","Object",2,"0-100","2","2",262,"100% Con","biased","inc",1,507
"530","Object",2,"0-100","2","2",263,"100% Con","unbiased","con",1,490
"531","Object",2,"0-100","2","2",264,"100% Con","biased","con",1,506
"532","Object",2,"0-100","2","2",265,"100% Con","biased","con",1,570
"533","Object",2,"0-100","2","2",266,"100% Con","biased","inc",1,570
"534","Object",2,"0-100","2","2",267,"100% Con","unbiased","inc",1,602
"535","Object",2,"0-100","2","2",268,"100% Con","biased","con",1,539
"536","Object",2,"0-100","2","2",269,"100% Con","biased","inc",1,523
"537","Object",2,"0-100","2","2",271,"100% Con","biased","con",1,468
"538","Object",2,"0-100","2","2",272,"100% Con","unbiased","inc",1,586
"539","Object",2,"0-100","2","2",273,"100% Con","unbiased","con",1,491
"540","Object",2,"0-100","2","2",274,"100% Con","biased","inc",1,602
"541","Object",2,"0-100","2","2",275,"100% Con","biased","con",1,475
"542","Object",2,"0-100","2","2",276,"100% Con","biased","con",1,523
"543","Object",2,"0-100","2","2",277,"100% Con","biased","inc",1,618
"544","Object",2,"0-100","2","2",278,"100% Con","biased","con",1,522
"545","Object",2,"0-100","2","2",279,"100% Con","biased","inc",1,618
"546","Object",2,"0-100","2","2",280,"100% Con","unbiased","con",1,474
"547","Object",2,"0-100","2","2",281,"100% Con","biased","inc",1,619
"548","Object",2,"0-100","2","2",283,"100% Con","biased","inc",1,595
"549","Object",2,"0-100","2","2",284,"100% Con","unbiased","inc",1,586
"550","Object",2,"0-100","2","2",285,"100% Con","biased","con",1,522
"551","Object",2,"0-100","2","2",286,"100% Con","unbiased","inc",1,555
"552","Object",2,"0-100","2","2",287,"100% Con","unbiased","con",1,586
"553","Object",2,"0-100","2","2",288,"100% Con","unbiased","con",1,522
"554","Object",2,"0-100","2","2",289,"100% Con","unbiased","inc",1,555
"555","Object",2,"0-100","2","2",290,"100% Con","biased","con",1,538
"556","Object",2,"0-100","2","2",291,"100% Con","biased","inc",1,619
"557","Object",2,"0-100","2","2",292,"100% Con","biased","inc",1,538
"558","Object",2,"0-100","2","2",293,"100% Con","biased","inc",1,650
"559","Object",2,"0-100","2","2",294,"100% Con","unbiased","con",1,491
"560","Object",2,"0-100","2","2",296,"100% Con","biased","con",1,506
"561","Object",2,"0-100","2","2",297,"100% Con","unbiased","inc",1,506
"562","Object",2,"0-100","2","2",298,"100% Con","biased","con",1,523
"563","Object",2,"0-100","2","2",299,"100% Con","biased","con",1,522
"564","Object",2,"0-100","2","2",300,"100% Con","biased","inc",1,522
"565","Object",2,"0-100","2","2",301,"100% Con","unbiased","inc",1,571
"566","Object",2,"0-100","2","2",302,"100% Con","unbiased","inc",1,587
"567","Object",2,"0-100","2","2",303,"100% Con","biased","con",1,603
"568","Object",2,"0-100","2","2",304,"100% Con","biased","inc",1,522
"569","Object",2,"0-100","2","2",305,"100% Con","biased","con",1,475
"570","Object",2,"0-100","2","2",306,"100% Con","unbiased","con",1,443
"571","Object",2,"0-100","2","2",307,"100% Con","biased","inc",1,587
"572","Object",2,"0-100","2","2",308,"100% Con","biased","inc",1,618
"573","Object",2,"0-100","2","2",310,"100% Con","biased","con",1,474
"574","Object",2,"0-100","2","2",311,"100% Con","biased","con",1,476
"575","Object",2,"0-100","2","2",312,"100% Con","biased","inc",1,522
"576","Object",2,"0-100","2","2",313,"100% Con","unbiased","con",1,523
"577","Object",3,"0-100","1","1",1,"0% Con","biased","con",1,1619
"578","Object",3,"0-100","1","1",2,"0% Con","unbiased","inc",1,636
"579","Object",3,"0-100","1","1",3,"0% Con","biased","con",1,562
"580","Object",3,"0-100","1","1",4,"0% Con","biased","con",1,359
"581","Object",3,"0-100","1","1",5,"0% Con","unbiased","con",1,491
"582","Object",3,"0-100","1","1",6,"0% Con","biased","con",1,364
"583","Object",3,"0-100","1","1",7,"0% Con","biased","inc",1,635
"584","Object",3,"0-100","1","1",8,"0% Con","unbiased","con",1,416
"585","Object",3,"0-100","1","1",9,"0% Con","biased","inc",1,464
"586","Object",3,"0-100","1","1",11,"0% Con","biased","inc",1,498
"587","Object",3,"0-100","1","1",12,"0% Con","biased","inc",1,422
"588","Object",3,"0-100","1","1",13,"0% Con","unbiased","inc",0,380
"589","Object",3,"0-100","1","1",14,"0% Con","biased","con",1,580
"590","Object",3,"0-100","1","1",15,"0% Con","biased","con",1,345
"591","Object",3,"0-100","1","1",16,"0% Con","biased","con",1,355
"592","Object",3,"0-100","1","1",17,"0% Con","biased","inc",1,405
"593","Object",3,"0-100","1","1",18,"0% Con","biased","inc",1,411
"594","Object",3,"0-100","1","1",19,"0% Con","unbiased","con",1,318
"595","Object",3,"0-100","1","1",20,"0% Con","biased","inc",1,426
"596","Object",3,"0-100","1","1",22,"0% Con","unbiased","con",1,758
"597","Object",3,"0-100","1","1",23,"0% Con","biased","con",1,386
"598","Object",3,"0-100","1","1",24,"0% Con","biased","inc",1,391
"599","Object",3,"0-100","1","1",25,"0% Con","unbiased","inc",0,327
"600","Object",3,"0-100","1","1",26,"0% Con","unbiased","inc",1,403
"601","Object",3,"0-100","1","1",27,"0% Con","biased","con",1,398
"602","Object",3,"0-100","1","1",28,"0% Con","biased","inc",1,400
"603","Object",3,"0-100","1","1",29,"0% Con","biased","con",1,369
"604","Object",3,"0-100","1","1",30,"0% Con","biased","inc",1,407
"605","Object",3,"0-100","1","1",31,"0% Con","unbiased","con",1,336
"606","Object",3,"0-100","1","1",32,"0% Con","unbiased","inc",1,360
"607","Object",3,"0-100","1","1",33,"0% Con","biased","inc",1,395
"608","Object",3,"0-100","1","1",34,"0% Con","unbiased","con",1,345
"609","Object",3,"0-100","1","1",35,"0% Con","unbiased","inc",1,410
"610","Object",3,"0-100","1","1",36,"0% Con","biased","inc",0,337
"611","Object",3,"0-100","1","1",38,"0% Con","biased","con",1,481
"612","Object",3,"0-100","1","1",39,"0% Con","biased","con",1,337
"613","Object",3,"0-100","1","1",40,"0% Con","biased","con",1,323
"614","Object",3,"0-100","1","1",41,"0% Con","biased","inc",1,380
"615","Object",3,"0-100","1","1",42,"0% Con","biased","inc",1,311
"616","Object",3,"0-100","1","1",43,"0% Con","biased","inc",1,354
"617","Object",3,"0-100","1","1",44,"0% Con","unbiased","con",1,343
"618","Object",3,"0-100","1","1",45,"0% Con","biased","inc",0,340
"619","Object",3,"0-100","1","1",46,"0% Con","biased","con",1,474
"620","Object",3,"0-100","1","1",48,"0% Con","unbiased","con",1,453
"621","Object",3,"0-100","1","1",49,"0% Con","biased","con",1,377
"622","Object",3,"0-100","1","1",50,"0% Con","unbiased","inc",1,430
"623","Object",3,"0-100","1","1",51,"0% Con","unbiased","inc",1,411
"624","Object",3,"0-100","1","1",52,"0% Con","biased","con",1,388
"625","Object",3,"0-100","1","1",53,"0% Con","biased","con",1,347
"626","Object",3,"0-100","1","1",54,"0% Con","biased","inc",1,400
"627","Object",3,"0-100","1","1",55,"0% Con","biased","con",1,346
"628","Object",3,"0-100","1","1",56,"0% Con","biased","inc",1,395
"629","Object",3,"0-100","1","1",57,"0% Con","unbiased","con",1,345
"630","Object",3,"0-100","1","1",58,"0% Con","biased","inc",0,344
"631","Object",3,"0-100","1","1",60,"0% Con","biased","con",1,461
"632","Object",3,"0-100","1","1",61,"0% Con","biased","inc",0,360
"633","Object",3,"0-100","1","1",62,"0% Con","unbiased","con",1,447
"634","Object",3,"0-100","1","1",63,"0% Con","biased","con",1,372
"635","Object",3,"0-100","1","1",64,"0% Con","unbiased","inc",1,421
"636","Object",3,"0-100","1","1",65,"0% Con","unbiased","inc",1,370
"637","Object",3,"0-100","1","1",66,"0% Con","biased","inc",1,433
"638","Object",3,"0-100","1","1",67,"0% Con","biased","con",1,364
"639","Object",3,"0-100","1","1",68,"0% Con","biased","inc",1,397
"640","Object",3,"0-100","1","1",69,"0% Con","biased","inc",1,427
"641","Object",3,"0-100","1","1",70,"0% Con","unbiased","con",1,349
"642","Object",3,"0-100","1","1",71,"0% Con","biased","inc",1,434
"643","Object",3,"0-100","1","1",72,"0% Con","biased","con",1,409
"644","Object",3,"0-100","1","1",73,"0% Con","unbiased","inc",1,445
"645","Object",3,"0-100","1","1",74,"0% Con","unbiased","con",1,444
"646","Object",3,"0-100","1","1",75,"0% Con","biased","con",1,452
"647","Object",3,"0-100","1","1",77,"0% Con","unbiased","inc",1,431
"648","Object",3,"0-100","1","1",78,"0% Con","biased","con",1,363
"649","Object",3,"0-100","1","2",79,"0% Con","biased","inc",1,400
"650","Object",3,"0-100","1","2",80,"0% Con","biased","con",1,351
"651","Object",3,"0-100","1","2",81,"0% Con","biased","con",1,331
"652","Object",3,"0-100","1","2",82,"0% Con","unbiased","con",1,350
"653","Object",3,"0-100","1","2",83,"0% Con","biased","inc",1,372
"654","Object",3,"0-100","1","2",84,"0% Con","unbiased","con",1,363
"655","Object",3,"0-100","1","2",85,"0% Con","unbiased","inc",0,328
"656","Object",3,"0-100","1","2",86,"0% Con","biased","inc",1,531
"657","Object",3,"0-100","1","2",87,"0% Con","biased","con",1,513
"658","Object",3,"0-100","1","2",88,"0% Con","biased","con",1,349
"659","Object",3,"0-100","1","2",90,"0% Con","biased","inc",1,457
"660","Object",3,"0-100","1","2",91,"0% Con","unbiased","inc",1,397
"661","Object",3,"0-100","1","2",92,"0% Con","biased","con",1,340
"662","Object",3,"0-100","1","2",93,"0% Con","unbiased","inc",0,358
"663","Object",3,"0-100","1","2",94,"0% Con","biased","con",1,496
"664","Object",3,"0-100","1","2",95,"0% Con","biased","inc",1,395
"665","Object",3,"0-100","1","2",96,"0% Con","unbiased","con",1,383
"666","Object",3,"0-100","1","2",97,"0% Con","unbiased","con",1,371
"667","Object",3,"0-100","1","2",98,"0% Con","biased","con",1,375
"668","Object",3,"0-100","1","2",99,"0% Con","biased","inc",0,392
"669","Object",3,"0-100","1","2",101,"0% Con","unbiased","inc",1,452
"670","Object",3,"0-100","1","2",102,"0% Con","biased","con",1,329
"671","Object",3,"0-100","1","2",103,"0% Con","biased","inc",1,399
"672","Object",3,"0-100","1","2",104,"0% Con","biased","inc",1,372
"673","Object",3,"0-100","1","2",105,"0% Con","biased","inc",1,411
"674","Object",3,"0-100","1","2",106,"0% Con","biased","con",1,480
"675","Object",3,"0-100","1","2",107,"0% Con","biased","con",1,308
"676","Object",3,"0-100","1","2",108,"0% Con","biased","con",1,355
"677","Object",3,"0-100","1","2",109,"0% Con","biased","con",1,311
"678","Object",3,"0-100","1","2",110,"0% Con","unbiased","con",1,440
"679","Object",3,"0-100","1","2",111,"0% Con","unbiased","inc",1,359
"680","Object",3,"0-100","1","2",112,"0% Con","biased","inc",1,392
"681","Object",3,"0-100","1","2",113,"0% Con","unbiased","con",1,321
"682","Object",3,"0-100","1","2",115,"0% Con","biased","inc",1,439
"683","Object",3,"0-100","1","2",116,"0% Con","biased","inc",1,372
"684","Object",3,"0-100","1","2",117,"0% Con","unbiased","inc",0,344
"685","Object",3,"0-100","1","2",118,"0% Con","biased","con",1,372
"686","Object",3,"0-100","1","2",119,"0% Con","biased","con",1,387
"687","Object",3,"0-100","1","2",120,"0% Con","unbiased","inc",1,382
"688","Object",3,"0-100","1","2",121,"0% Con","biased","inc",1,409
"689","Object",3,"0-100","1","2",122,"0% Con","unbiased","inc",1,386
"690","Object",3,"0-100","1","2",123,"0% Con","biased","con",1,341
"691","Object",3,"0-100","1","2",124,"0% Con","unbiased","con",1,304
"692","Object",3,"0-100","1","2",125,"0% Con","biased","con",1,340
"693","Object",3,"0-100","1","2",126,"0% Con","biased","inc",1,411
"694","Object",3,"0-100","1","2",127,"0% Con","biased","inc",1,410
"695","Object",3,"0-100","1","2",129,"0% Con","unbiased","con",1,889
"696","Object",3,"0-100","1","2",130,"0% Con","biased","inc",1,646
"697","Object",3,"0-100","1","2",131,"0% Con","biased","con",1,389
"698","Object",3,"0-100","1","2",132,"0% Con","unbiased","inc",1,418
"699","Object",3,"0-100","1","2",133,"0% Con","unbiased","con",1,316
"700","Object",3,"0-100","1","2",134,"0% Con","biased","con",1,400
"701","Object",3,"0-100","1","2",135,"0% Con","biased","con",1,303
"702","Object",3,"0-100","1","2",136,"0% Con","biased","con",1,310
"703","Object",3,"0-100","1","2",137,"0% Con","unbiased","con",1,361
"704","Object",3,"0-100","1","2",138,"0% Con","biased","inc",1,382
"705","Object",3,"0-100","1","2",139,"0% Con","unbiased","inc",1,466
"706","Object",3,"0-100","1","2",141,"0% Con","biased","inc",1,485
"707","Object",3,"0-100","1","2",142,"0% Con","biased","inc",1,380
"708","Object",3,"0-100","1","2",143,"0% Con","biased","inc",0,372
"709","Object",3,"0-100","1","2",144,"0% Con","biased","inc",1,406
"710","Object",3,"0-100","1","2",145,"0% Con","unbiased","con",1,427
"711","Object",3,"0-100","1","2",146,"0% Con","biased","inc",1,396
"712","Object",3,"0-100","1","2",147,"0% Con","unbiased","inc",1,384
"713","Object",3,"0-100","1","2",148,"0% Con","biased","con",1,343
"714","Object",3,"0-100","1","2",149,"0% Con","unbiased","con",1,367
"715","Object",3,"0-100","1","2",150,"0% Con","biased","inc",1,431
"716","Object",3,"0-100","1","2",151,"0% Con","biased","inc",1,401
"717","Object",3,"0-100","1","2",153,"0% Con","biased","con",1,520
"718","Object",3,"0-100","1","2",154,"0% Con","biased","con",1,356
"719","Object",3,"0-100","1","2",155,"0% Con","unbiased","inc",1,420
"720","Object",3,"0-100","1","2",156,"0% Con","biased","con",1,372
"721","Object",3,"0-100","2","1",158,"100% Con","unbiased","con",1,894
"722","Object",3,"0-100","2","1",159,"100% Con","biased","inc",1,544
"723","Object",3,"0-100","2","1",160,"100% Con","biased","inc",1,484
"724","Object",3,"0-100","2","1",161,"100% Con","biased","con",1,371
"725","Object",3,"0-100","2","1",162,"100% Con","unbiased","inc",1,380
"726","Object",3,"0-100","2","1",163,"100% Con","biased","con",1,356
"727","Object",3,"0-100","2","1",164,"100% Con","biased","inc",1,404
"728","Object",3,"0-100","2","1",165,"100% Con","unbiased","inc",1,377
"729","Object",3,"0-100","2","1",166,"100% Con","biased","con",1,347
"730","Object",3,"0-100","2","1",168,"100% Con","unbiased","con",1,504
"731","Object",3,"0-100","2","1",169,"100% Con","biased","inc",1,396
"732","Object",3,"0-100","2","1",170,"100% Con","biased","con",1,344
"733","Object",3,"0-100","2","1",171,"100% Con","biased","inc",1,322
"734","Object",3,"0-100","2","1",172,"100% Con","unbiased","con",1,298
"735","Object",3,"0-100","2","1",173,"100% Con","unbiased","inc",1,393
"736","Object",3,"0-100","2","1",174,"100% Con","biased","inc",0,367
"737","Object",3,"0-100","2","1",175,"100% Con","unbiased","con",1,411
"738","Object",3,"0-100","2","1",176,"100% Con","biased","con",1,304
"739","Object",3,"0-100","2","1",178,"100% Con","biased","con",1,361
"740","Object",3,"0-100","2","1",179,"100% Con","biased","con",1,357
"741","Object",3,"0-100","2","1",180,"100% Con","unbiased","inc",1,437
"742","Object",3,"0-100","2","1",181,"100% Con","biased","inc",0,312
"743","Object",3,"0-100","2","1",182,"100% Con","biased","con",1,524
"744","Object",3,"0-100","2","1",183,"100% Con","biased","inc",1,589
"745","Object",3,"0-100","2","1",184,"100% Con","biased","con",1,398
"746","Object",3,"0-100","2","1",185,"100% Con","unbiased","con",1,418
"747","Object",3,"0-100","2","1",186,"100% Con","unbiased","con",1,342
"748","Object",3,"0-100","2","1",187,"100% Con","biased","con",1,408
"749","Object",3,"0-100","2","1",188,"100% Con","biased","con",1,496
"750","Object",3,"0-100","2","1",189,"100% Con","unbiased","inc",1,484
"751","Object",3,"0-100","2","1",190,"100% Con","biased","con",1,335
"752","Object",3,"0-100","2","1",191,"100% Con","unbiased","inc",1,441
"753","Object",3,"0-100","2","1",192,"100% Con","biased","inc",1,401
"754","Object",3,"0-100","2","1",193,"100% Con","biased","inc",1,427
"755","Object",3,"0-100","2","1",195,"100% Con","biased","inc",1,497
"756","Object",3,"0-100","2","1",196,"100% Con","biased","inc",1,391
"757","Object",3,"0-100","2","1",197,"100% Con","biased","con",1,319
"758","Object",3,"0-100","2","1",198,"100% Con","biased","con",1,501
"759","Object",3,"0-100","2","1",199,"100% Con","biased","con",1,317
"760","Object",3,"0-100","2","1",200,"100% Con","unbiased","inc",1,507
"761","Object",3,"0-100","2","1",201,"100% Con","biased","con",1,407
"762","Object",3,"0-100","2","1",202,"100% Con","unbiased","inc",1,411
"763","Object",3,"0-100","2","1",203,"100% Con","biased","inc",1,484
"764","Object",3,"0-100","2","1",205,"100% Con","biased","inc",0,855
"765","Object",3,"0-100","2","1",206,"100% Con","biased","inc",1,454
"766","Object",3,"0-100","2","1",207,"100% Con","unbiased","con",1,348
"767","Object",3,"0-100","2","1",208,"100% Con","biased","inc",1,477
"768","Object",3,"0-100","2","1",209,"100% Con","unbiased","con",1,391
"769","Object",3,"0-100","2","1",210,"100% Con","biased","inc",1,421
"770","Object",3,"0-100","2","1",211,"100% Con","biased","inc",1,379
"771","Object",3,"0-100","2","1",212,"100% Con","biased","con",1,341
"772","Object",3,"0-100","2","1",213,"100% Con","biased","inc",1,424
"773","Object",3,"0-100","2","1",214,"100% Con","biased","con",1,349
"774","Object",3,"0-100","2","1",215,"100% Con","biased","inc",1,352
"775","Object",3,"0-100","2","1",217,"100% Con","unbiased","con",1,415
"776","Object",3,"0-100","2","1",218,"100% Con","biased","con",1,373
"777","Object",3,"0-100","2","1",219,"100% Con","unbiased","inc",1,390
"778","Object",3,"0-100","2","1",220,"100% Con","unbiased","inc",1,383
"779","Object",3,"0-100","2","1",221,"100% Con","biased","con",1,339
"780","Object",3,"0-100","2","1",222,"100% Con","unbiased","con",1,361
"781","Object",3,"0-100","2","1",223,"100% Con","biased","con",1,336
"782","Object",3,"0-100","2","1",224,"100% Con","unbiased","inc",1,375
"783","Object",3,"0-100","2","1",225,"100% Con","biased","inc",1,454
"784","Object",3,"0-100","2","1",226,"100% Con","unbiased","inc",1,365
"785","Object",3,"0-100","2","1",227,"100% Con","biased","inc",1,374
"786","Object",3,"0-100","2","1",228,"100% Con","unbiased","con",1,312
"787","Object",3,"0-100","2","1",229,"100% Con","biased","inc",1,392
"788","Object",3,"0-100","2","1",230,"100% Con","biased","con",1,344
"789","Object",3,"0-100","2","1",231,"100% Con","biased","con",1,330
"790","Object",3,"0-100","2","1",233,"100% Con","biased","inc",1,588
"791","Object",3,"0-100","2","1",234,"100% Con","unbiased","con",1,376
"792","Object",3,"0-100","2","1",235,"100% Con","biased","con",1,437
"793","Object",3,"0-100","2","2",236,"100% Con","unbiased","con",1,429
"794","Object",3,"0-100","2","2",237,"100% Con","biased","inc",1,371
"795","Object",3,"0-100","2","2",238,"100% Con","biased","inc",0,347
"796","Object",3,"0-100","2","2",239,"100% Con","biased","inc",1,381
"797","Object",3,"0-100","2","2",240,"100% Con","biased","con",1,363
"798","Object",3,"0-100","2","2",241,"100% Con","biased","con",0,416
"799","Object",3,"0-100","2","2",242,"100% Con","biased","con",1,398
"800","Object",3,"0-100","2","2",243,"100% Con","unbiased","con",1,405
"801","Object",3,"0-100","2","2",244,"100% Con","unbiased","inc",1,418
"802","Object",3,"0-100","2","2",245,"100% Con","biased","inc",1,489
"803","Object",3,"0-100","2","2",246,"100% Con","biased","con",1,441
"804","Object",3,"0-100","2","2",248,"100% Con","unbiased","inc",1,422
"805","Object",3,"0-100","2","2",249,"100% Con","biased","inc",1,373
"806","Object",3,"0-100","2","2",250,"100% Con","biased","con",1,333
"807","Object",3,"0-100","2","2",251,"100% Con","biased","con",1,334
"808","Object",3,"0-100","2","2",252,"100% Con","unbiased","con",1,308
"809","Object",3,"0-100","2","2",253,"100% Con","biased","inc",0,332
"810","Object",3,"0-100","2","2",254,"100% Con","unbiased","inc",1,391
"811","Object",3,"0-100","2","2",255,"100% Con","unbiased","con",1,352
"812","Object",3,"0-100","2","2",257,"100% Con","biased","inc",1,427
"813","Object",3,"0-100","2","2",258,"100% Con","biased","inc",1,426
"814","Object",3,"0-100","2","2",259,"100% Con","biased","con",1,354
"815","Object",3,"0-100","2","2",260,"100% Con","unbiased","inc",1,402
"816","Object",3,"0-100","2","2",261,"100% Con","biased","con",1,395
"817","Object",3,"0-100","2","2",262,"100% Con","unbiased","inc",1,363
"818","Object",3,"0-100","2","2",263,"100% Con","biased","inc",1,424
"819","Object",3,"0-100","2","2",264,"100% Con","unbiased","con",1,350
"820","Object",3,"0-100","2","2",265,"100% Con","biased","con",1,317
"821","Object",3,"0-100","2","2",266,"100% Con","biased","inc",0,406
"822","Object",3,"0-100","2","2",267,"100% Con","biased","inc",1,407
"823","Object",3,"0-100","2","2",268,"100% Con","biased","con",1,426
"824","Object",3,"0-100","2","2",269,"100% Con","biased","inc",0,407
"825","Object",3,"0-100","2","2",270,"100% Con","unbiased","con",1,371
"826","Object",3,"0-100","2","2",271,"100% Con","biased","con",1,421
"827","Object",3,"0-100","2","2",272,"100% Con","unbiased","inc",1,420
"828","Object",3,"0-100","2","2",274,"100% Con","biased","con",1,368
"829","Object",3,"0-100","2","2",275,"100% Con","unbiased","con",1,346
"830","Object",3,"0-100","2","2",276,"100% Con","biased","inc",0,365
"831","Object",3,"0-100","2","2",277,"100% Con","biased","inc",1,492
"832","Object",3,"0-100","2","2",278,"100% Con","biased","inc",1,399
"833","Object",3,"0-100","2","2",279,"100% Con","biased","con",1,344
"834","Object",3,"0-100","2","2",280,"100% Con","unbiased","inc",1,375
"835","Object",3,"0-100","2","2",282,"100% Con","biased","con",1,427
"836","Object",3,"0-100","2","2",283,"100% Con","biased","inc",1,333
"837","Object",3,"0-100","2","2",284,"100% Con","biased","con",1,401
"838","Object",3,"0-100","2","2",285,"100% Con","unbiased","inc",1,418
"839","Object",3,"0-100","2","2",286,"100% Con","biased","con",1,355
"840","Object",3,"0-100","2","2",287,"100% Con","unbiased","con",1,343
"841","Object",3,"0-100","2","2",288,"100% Con","biased","con",1,324
"842","Object",3,"0-100","2","2",289,"100% Con","biased","inc",1,492
"843","Object",3,"0-100","2","2",290,"100% Con","unbiased","con",1,368
"844","Object",3,"0-100","2","2",291,"100% Con","biased","con",1,318
"845","Object",3,"0-100","2","2",292,"100% Con","biased","inc",1,464
"846","Object",3,"0-100","2","2",293,"100% Con","biased","inc",1,413
"847","Object",3,"0-100","2","2",295,"100% Con","unbiased","inc",1,457
"848","Object",3,"0-100","2","2",296,"100% Con","unbiased","inc",1,417
"849","Object",3,"0-100","2","2",297,"100% Con","biased","con",1,363
"850","Object",3,"0-100","2","2",298,"100% Con","biased","con",1,347
"851","Object",3,"0-100","2","2",299,"100% Con","unbiased","con",1,312
"852","Object",3,"0-100","2","2",300,"100% Con","biased","inc",1,430
"853","Object",3,"0-100","2","2",301,"100% Con","biased","inc",1,413
"854","Object",3,"0-100","2","2",302,"100% Con","unbiased","con",1,385
"855","Object",3,"0-100","2","2",303,"100% Con","biased","con",1,372
"856","Object",3,"0-100","2","2",304,"100% Con","biased","con",1,368
"857","Object",3,"0-100","2","2",305,"100% Con","biased","inc",0,337
"858","Object",3,"0-100","2","2",306,"100% Con","unbiased","inc",1,382
"859","Object",3,"0-100","2","2",307,"100% Con","biased","con",1,390
"860","Object",3,"0-100","2","2",308,"100% Con","biased","con",1,375
"861","Object",3,"0-100","2","2",309,"100% Con","biased","inc",1,384
"862","Object",3,"0-100","2","2",310,"100% Con","unbiased","inc",1,400
"863","Object",3,"0-100","2","2",312,"100% Con","unbiased","con",1,418
"864","Object",3,"0-100","2","2",313,"100% Con","biased","inc",1,391
"865","Object",4,"100-0","1","1",1,"100% Con","unbiased","con",1,963
"866","Object",4,"100-0","1","1",2,"100% Con","biased","inc",0,583
"867","Object",4,"100-0","1","1",3,"100% Con","biased","inc",1,685
"868","Object",4,"100-0","1","1",4,"100% Con","biased","con",1,415
"869","Object",4,"100-0","1","1",5,"100% Con","biased","con",1,617
"870","Object",4,"100-0","1","1",6,"100% Con","unbiased","inc",1,1384
"871","Object",4,"100-0","1","1",7,"100% Con","biased","con",1,687
"872","Object",4,"100-0","1","1",8,"100% Con","biased","con",1,535
"873","Object",4,"100-0","1","1",9,"100% Con","biased","inc",1,1121
"874","Object",4,"100-0","1","1",11,"100% Con","unbiased","inc",1,953
"875","Object",4,"100-0","1","1",12,"100% Con","unbiased","con",1,460
"876","Object",4,"100-0","1","1",13,"100% Con","biased","inc",1,577
"877","Object",4,"100-0","1","1",14,"100% Con","biased","con",1,525
"878","Object",4,"100-0","1","1",15,"100% Con","biased","inc",1,930
"879","Object",4,"100-0","1","1",16,"100% Con","biased","inc",1,538
"880","Object",4,"100-0","1","1",17,"100% Con","unbiased","inc",1,614
"881","Object",4,"100-0","1","1",18,"100% Con","biased","con",1,811
"882","Object",4,"100-0","1","1",19,"100% Con","biased","inc",1,668
"883","Object",4,"100-0","1","1",20,"100% Con","unbiased","con",1,559
"884","Object",4,"100-0","1","1",21,"100% Con","unbiased","con",1,469
"885","Object",4,"100-0","1","1",22,"100% Con","biased","con",1,438
"886","Object",4,"100-0","1","1",24,"100% Con","biased","con",1,685
"887","Object",4,"100-0","1","1",25,"100% Con","unbiased","inc",1,658
"888","Object",4,"100-0","1","1",26,"100% Con","biased","inc",1,527
"889","Object",4,"100-0","1","1",27,"100% Con","biased","inc",1,595
"890","Object",4,"100-0","1","1",28,"100% Con","biased","con",1,507
"891","Object",4,"100-0","1","1",29,"100% Con","unbiased","con",1,441
"892","Object",4,"100-0","1","1",30,"100% Con","biased","con",1,479
"893","Object",4,"100-0","1","1",31,"100% Con","unbiased","inc",1,548
"894","Object",4,"100-0","1","1",32,"100% Con","unbiased","con",1,425
"895","Object",4,"100-0","1","1",33,"100% Con","biased","inc",1,760
"896","Object",4,"100-0","1","1",34,"100% Con","biased","inc",1,607
"897","Object",4,"100-0","1","1",35,"100% Con","unbiased","inc",1,557
"898","Object",4,"100-0","1","1",36,"100% Con","biased","inc",1,600
"899","Object",4,"100-0","1","1",38,"100% Con","biased","con",1,959
"900","Object",4,"100-0","1","1",39,"100% Con","biased","con",1,440
"901","Object",4,"100-0","1","1",40,"100% Con","biased","con",1,438
"902","Object",4,"100-0","1","1",41,"100% Con","unbiased","con",1,394
"903","Object",4,"100-0","1","1",42,"100% Con","unbiased","inc",1,512
"904","Object",4,"100-0","1","1",43,"100% Con","unbiased","con",1,414
"905","Object",4,"100-0","1","1",44,"100% Con","unbiased","inc",0,441
"906","Object",4,"100-0","1","1",45,"100% Con","biased","con",1,439
"907","Object",4,"100-0","1","1",46,"100% Con","biased","inc",1,673
"908","Object",4,"100-0","1","1",47,"100% Con","biased","con",1,550
"909","Object",4,"100-0","1","1",48,"100% Con","biased","con",1,497
"910","Object",4,"100-0","1","1",50,"100% Con","biased","inc",1,716
"911","Object",4,"100-0","1","1",51,"100% Con","biased","inc",0,480
"912","Object",4,"100-0","1","1",52,"100% Con","biased","inc",1,649
"913","Object",4,"100-0","1","1",53,"100% Con","biased","con",1,460
"914","Object",4,"100-0","1","1",54,"100% Con","biased","con",1,448
"915","Object",4,"100-0","1","1",55,"100% Con","biased","con",1,501
"916","Object",4,"100-0","1","1",56,"100% Con","biased","con",1,473
"917","Object",4,"100-0","1","1",57,"100% Con","unbiased","inc",1,675
"918","Object",4,"100-0","1","1",58,"100% Con","biased","inc",1,741
"919","Object",4,"100-0","1","1",60,"100% Con","unbiased","con",1,649
"920","Object",4,"100-0","1","1",61,"100% Con","biased","inc",0,534
"921","Object",4,"100-0","1","1",62,"100% Con","biased","inc",1,528
"922","Object",4,"100-0","1","1",63,"100% Con","unbiased","inc",1,604
"923","Object",4,"100-0","1","1",64,"100% Con","biased","inc",1,501
"924","Object",4,"100-0","1","1",65,"100% Con","unbiased","con",1,483
"925","Object",4,"100-0","1","1",66,"100% Con","biased","inc",1,524
"926","Object",4,"100-0","1","1",67,"100% Con","biased","con",1,468
"927","Object",4,"100-0","1","1",68,"100% Con","biased","con",1,436
"928","Object",4,"100-0","1","1",69,"100% Con","biased","inc",1,625
"929","Object",4,"100-0","1","1",70,"100% Con","biased","con",1,528
"930","Object",4,"100-0","1","1",71,"100% Con","biased","inc",1,520
"931","Object",4,"100-0","1","1",72,"100% Con","unbiased","inc",1,529
"932","Object",4,"100-0","1","1",73,"100% Con","unbiased","con",1,507
"933","Object",4,"100-0","1","1",74,"100% Con","unbiased","inc",1,653
"934","Object",4,"100-0","1","1",75,"100% Con","biased","con",1,410
"935","Object",4,"100-0","1","1",76,"100% Con","unbiased","con",1,411
"936","Object",4,"100-0","1","1",78,"100% Con","biased","inc",1,839
"937","Object",4,"100-0","1","2",79,"100% Con","unbiased","inc",1,630
"938","Object",4,"100-0","1","2",80,"100% Con","biased","inc",1,592
"939","Object",4,"100-0","1","2",81,"100% Con","biased","inc",1,642
"940","Object",4,"100-0","1","2",82,"100% Con","biased","inc",1,513
"941","Object",4,"100-0","1","2",83,"100% Con","biased","con",1,459
"942","Object",4,"100-0","1","2",84,"100% Con","unbiased","con",1,469
"943","Object",4,"100-0","1","2",85,"100% Con","unbiased","con",1,436
"944","Object",4,"100-0","1","2",86,"100% Con","biased","con",1,396
"945","Object",4,"100-0","1","2",88,"100% Con","biased","inc",1,689
"946","Object",4,"100-0","1","2",89,"100% Con","biased","con",1,431
"947","Object",4,"100-0","1","2",90,"100% Con","unbiased","inc",0,465
"948","Object",4,"100-0","1","2",91,"100% Con","biased","con",1,498
"949","Object",4,"100-0","1","2",92,"100% Con","biased","inc",1,486
"950","Object",4,"100-0","1","2",93,"100% Con","unbiased","inc",1,675
"951","Object",4,"100-0","1","2",94,"100% Con","biased","con",1,427
"952","Object",4,"100-0","1","2",95,"100% Con","biased","con",1,406
"953","Object",4,"100-0","1","2",96,"100% Con","unbiased","inc",1,497
"954","Object",4,"100-0","1","2",97,"100% Con","biased","inc",1,713
"955","Object",4,"100-0","1","2",98,"100% Con","unbiased","con",1,433
"956","Object",4,"100-0","1","2",99,"100% Con","biased","inc",1,650
"957","Object",4,"100-0","1","2",100,"100% Con","biased","con",1,574
"958","Object",4,"100-0","1","2",101,"100% Con","biased","inc",1,879
"959","Object",4,"100-0","1","2",103,"100% Con","unbiased","con",1,1194
"960","Object",4,"100-0","1","2",104,"100% Con","biased","con",1,467
"961","Object",4,"100-0","1","2",105,"100% Con","unbiased","inc",0,516
"962","Object",4,"100-0","1","2",106,"100% Con","biased","inc",1,540
"963","Object",4,"100-0","1","2",107,"100% Con","unbiased","inc",1,542
"964","Object",4,"100-0","1","2",108,"100% Con","biased","con",1,422
"965","Object",4,"100-0","1","2",109,"100% Con","unbiased","con",1,381
"966","Object",4,"100-0","1","2",110,"100% Con","biased","con",1,570
"967","Object",4,"100-0","1","2",111,"100% Con","unbiased","con",1,408
"968","Object",4,"100-0","1","2",112,"100% Con","biased","inc",1,546
"969","Object",4,"100-0","1","2",114,"100% Con","biased","inc",1,1078
"970","Object",4,"100-0","1","2",115,"100% Con","biased","inc",1,488
"971","Object",4,"100-0","1","2",116,"100% Con","biased","con",1,545
"972","Object",4,"100-0","1","2",117,"100% Con","biased","con",0,549
"973","Object",4,"100-0","1","2",118,"100% Con","unbiased","con",1,520
"974","Object",4,"100-0","1","2",119,"100% Con","biased","inc",1,718
"975","Object",4,"100-0","1","2",120,"100% Con","biased","inc",1,548
"976","Object",4,"100-0","1","2",121,"100% Con","biased","inc",1,586
"977","Object",4,"100-0","1","2",122,"100% Con","biased","con",1,442
"978","Object",4,"100-0","1","2",123,"100% Con","biased","con",1,470
"979","Object",4,"100-0","1","2",124,"100% Con","unbiased","con",1,472
"980","Object",4,"100-0","1","2",125,"100% Con","biased","con",1,424
"981","Object",4,"100-0","1","2",126,"100% Con","unbiased","inc",1,853
"982","Object",4,"100-0","1","2",128,"100% Con","unbiased","inc",1,666
"983","Object",4,"100-0","1","2",129,"100% Con","biased","con",1,459
"984","Object",4,"100-0","1","2",130,"100% Con","biased","inc",1,554
"985","Object",4,"100-0","1","2",131,"100% Con","unbiased","con",1,416
"986","Object",4,"100-0","1","2",132,"100% Con","biased","con",1,419
"987","Object",4,"100-0","1","2",133,"100% Con","biased","inc",0,406
"988","Object",4,"100-0","1","2",134,"100% Con","biased","con",1,465
"989","Object",4,"100-0","1","2",135,"100% Con","biased","con",1,458
"990","Object",4,"100-0","1","2",136,"100% Con","unbiased","inc",1,505
"991","Object",4,"100-0","1","2",137,"100% Con","biased","inc",1,805
"992","Object",4,"100-0","1","2",138,"100% Con","biased","inc",1,575
"993","Object",4,"100-0","1","2",139,"100% Con","biased","con",1,461
"994","Object",4,"100-0","1","2",141,"100% Con","biased","inc",1,723
"995","Object",4,"100-0","1","2",142,"100% Con","unbiased","con",1,364
"996","Object",4,"100-0","1","2",143,"100% Con","unbiased","inc",1,463
"997","Object",4,"100-0","1","2",144,"100% Con","unbiased","inc",1,532
"998","Object",4,"100-0","1","2",145,"100% Con","unbiased","con",1,442
"999","Object",4,"100-0","1","2",146,"100% Con","biased","inc",1,533
"1000","Object",4,"100-0","1","2",147,"100% Con","biased","inc",1,549
"1001","Object",4,"100-0","1","2",148,"100% Con","biased","con",1,442
"1002","Object",4,"100-0","1","2",149,"100% Con","biased","con",1,458
"1003","Object",4,"100-0","1","2",150,"100% Con","unbiased","con",1,412
"1004","Object",4,"100-0","1","2",151,"100% Con","biased","con",1,394
"1005","Object",4,"100-0","1","2",152,"100% Con","unbiased","inc",0,445
"1006","Object",4,"100-0","1","2",153,"100% Con","biased","inc",0,649
"1007","Object",4,"100-0","1","2",155,"100% Con","biased","con",1,498
"1008","Object",4,"100-0","1","2",156,"100% Con","biased","inc",0,565
"1009","Object",4,"100-0","2","1",158,"0% Con","biased","inc",1,1128
"1010","Object",4,"100-0","2","1",159,"0% Con","biased","con",1,571
"1011","Object",4,"100-0","2","1",160,"0% Con","biased","con",1,387
"1012","Object",4,"100-0","2","1",161,"0% Con","biased","con",0,479
"1013","Object",4,"100-0","2","1",162,"0% Con","biased","inc",1,536
"1014","Object",4,"100-0","2","1",163,"0% Con","biased","con",1,385
"1015","Object",4,"100-0","2","1",164,"0% Con","unbiased","con",1,448
"1016","Object",4,"100-0","2","1",166,"0% Con","unbiased","inc",1,575
"1017","Object",4,"100-0","2","1",167,"0% Con","unbiased","inc",1,509
"1018","Object",4,"100-0","2","1",168,"0% Con","unbiased","con",1,390
"1019","Object",4,"100-0","2","1",169,"0% Con","biased","inc",0,415
"1020","Object",4,"100-0","2","1",170,"0% Con","biased","inc",1,505
"1021","Object",4,"100-0","2","1",171,"0% Con","biased","inc",0,467
"1022","Object",4,"100-0","2","1",172,"0% Con","biased","inc",1,629
"1023","Object",4,"100-0","2","1",173,"0% Con","biased","con",1,564
"1024","Object",4,"100-0","2","1",174,"0% Con","unbiased","inc",1,582
"1025","Object",4,"100-0","2","1",175,"0% Con","biased","con",1,520
"1026","Object",4,"100-0","2","1",176,"0% Con","unbiased","con",1,386
"1027","Object",4,"100-0","2","1",178,"0% Con","biased","con",1,532
"1028","Object",4,"100-0","2","1",179,"0% Con","biased","inc",1,419
"1029","Object",4,"100-0","2","1",180,"0% Con","biased","inc",1,446
"1030","Object",4,"100-0","2","1",181,"0% Con","unbiased","inc",1,542
"1031","Object",4,"100-0","2","1",182,"0% Con","biased","con",1,546
"1032","Object",4,"100-0","2","1",183,"0% Con","unbiased","con",1,396
"1033","Object",4,"100-0","2","1",184,"0% Con","unbiased","con",1,507
"1034","Object",4,"100-0","2","1",185,"0% Con","unbiased","inc",0,430
"1035","Object",4,"100-0","2","1",186,"0% Con","biased","inc",1,624
"1036","Object",4,"100-0","2","1",187,"0% Con","biased","con",1,464
"1037","Object",4,"100-0","2","1",188,"0% Con","unbiased","inc",1,507
"1038","Object",4,"100-0","2","1",189,"0% Con","biased","inc",1,432
"1039","Object",4,"100-0","2","1",190,"0% Con","biased","con",1,491
"1040","Object",4,"100-0","2","1",191,"0% Con","biased","con",1,446
"1041","Object",4,"100-0","2","1",193,"0% Con","biased","inc",1,1153
"1042","Object",4,"100-0","2","1",194,"0% Con","biased","inc",0,488
"1043","Object",4,"100-0","2","1",195,"0% Con","unbiased","con",1,531
"1044","Object",4,"100-0","2","1",196,"0% Con","biased","con",1,546
"1045","Object",4,"100-0","2","1",197,"0% Con","biased","inc",1,562
"1046","Object",4,"100-0","2","1",198,"0% Con","biased","inc",1,502
"1047","Object",4,"100-0","2","1",199,"0% Con","biased","con",0,394
"1048","Object",4,"100-0","2","1",200,"0% Con","biased","inc",1,533
"1049","Object",4,"100-0","2","1",201,"0% Con","unbiased","con",1,430
"1050","Object",4,"100-0","2","1",202,"0% Con","biased","inc",1,557
"1051","Object",4,"100-0","2","1",204,"0% Con","unbiased","inc",1,724
"1052","Object",4,"100-0","2","1",205,"0% Con","biased","con",1,555
"1053","Object",4,"100-0","2","1",206,"0% Con","unbiased","con",1,440
"1054","Object",4,"100-0","2","1",207,"0% Con","biased","con",1,500
"1055","Object",4,"100-0","2","1",208,"0% Con","biased","con",1,518
"1056","Object",4,"100-0","2","1",209,"0% Con","unbiased","inc",1,483
"1057","Object",4,"100-0","2","1",210,"0% Con","unbiased","inc",0,424
"1058","Object",4,"100-0","2","1",211,"0% Con","biased","con",1,582
"1059","Object",4,"100-0","2","1",212,"0% Con","biased","inc",1,567
"1060","Object",4,"100-0","2","1",213,"0% Con","biased","inc",1,577
"1061","Object",4,"100-0","2","1",214,"0% Con","biased","con",1,481
"1062","Object",4,"100-0","2","1",215,"0% Con","unbiased","con",1,440
"1063","Object",4,"100-0","2","1",216,"0% Con","biased","con",1,456
"1064","Object",4,"100-0","2","1",217,"0% Con","unbiased","con",1,428
"1065","Object",4,"100-0","2","1",219,"0% Con","biased","inc",1,470
"1066","Object",4,"100-0","2","1",220,"0% Con","biased","con",1,435
"1067","Object",4,"100-0","2","1",221,"0% Con","biased","inc",1,594
"1068","Object",4,"100-0","2","1",222,"0% Con","unbiased","inc",1,484
"1069","Object",4,"100-0","2","1",223,"0% Con","unbiased","con",1,475
"1070","Object",4,"100-0","2","1",224,"0% Con","unbiased","inc",1,542
"1071","Object",4,"100-0","2","1",225,"0% Con","biased","inc",1,547
"1072","Object",4,"100-0","2","1",226,"0% Con","biased","con",1,498
"1073","Object",4,"100-0","2","1",227,"0% Con","biased","con",1,460
"1074","Object",4,"100-0","2","1",228,"0% Con","biased","con",0,388
"1075","Object",4,"100-0","2","1",229,"0% Con","unbiased","con",1,442
"1076","Object",4,"100-0","2","1",231,"0% Con","biased","inc",1,685
"1077","Object",4,"100-0","2","1",232,"0% Con","biased","con",1,473
"1078","Object",4,"100-0","2","1",233,"0% Con","unbiased","inc",1,522
"1079","Object",4,"100-0","2","1",234,"0% Con","biased","inc",0,446
"1080","Object",4,"100-0","2","1",235,"0% Con","biased","inc",1,542
"1081","Object",4,"100-0","2","2",236,"0% Con","biased","inc",1,517
"1082","Object",4,"100-0","2","2",237,"0% Con","unbiased","inc",1,546
"1083","Object",4,"100-0","2","2",238,"0% Con","biased","inc",1,497
"1084","Object",4,"100-0","2","2",239,"0% Con","unbiased","inc",0,490
"1085","Object",4,"100-0","2","2",240,"0% Con","biased","con",1,621
"1086","Object",4,"100-0","2","2",241,"0% Con","biased","inc",1,554
"1087","Object",4,"100-0","2","2",242,"0% Con","biased","con",1,471
"1088","Object",4,"100-0","2","2",244,"0% Con","biased","inc",0,605
"1089","Object",4,"100-0","2","2",245,"0% Con","biased","con",1,550
"1090","Object",4,"100-0","2","2",246,"0% Con","unbiased","con",1,639
"1091","Object",4,"100-0","2","2",247,"0% Con","biased","con",1,459
"1092","Object",4,"100-0","2","2",248,"0% Con","unbiased","con",1,471
"1093","Object",4,"100-0","2","2",249,"0% Con","biased","con",1,476
"1094","Object",4,"100-0","2","2",250,"0% Con","unbiased","inc",1,484
"1095","Object",4,"100-0","2","2",251,"0% Con","biased","inc",0,478
"1096","Object",4,"100-0","2","2",252,"0% Con","biased","con",1,488
"1097","Object",4,"100-0","2","2",253,"0% Con","biased","inc",1,470
"1098","Object",4,"100-0","2","2",254,"0% Con","biased","con",1,478
"1099","Object",4,"100-0","2","2",255,"0% Con","biased","inc",0,452
"1100","Object",4,"100-0","2","2",257,"0% Con","unbiased","con",1,655
"1101","Object",4,"100-0","2","2",258,"0% Con","unbiased","inc",1,539
"1102","Object",4,"100-0","2","2",259,"0% Con","biased","inc",1,480
"1103","Object",4,"100-0","2","2",260,"0% Con","unbiased","con",1,468
"1104","Object",4,"100-0","2","2",261,"0% Con","biased","con",1,505
"1105","Object",4,"100-0","2","2",262,"0% Con","biased","con",1,438
"1106","Object",4,"100-0","2","2",263,"0% Con","biased","con",1,470
"1107","Object",4,"100-0","2","2",264,"0% Con","biased","con",1,480
"1108","Object",4,"100-0","2","2",265,"0% Con","biased","inc",1,469
"1109","Object",4,"100-0","2","2",266,"0% Con","biased","inc",1,456
"1110","Object",4,"100-0","2","2",267,"0% Con","unbiased","inc",1,525
"1111","Object",4,"100-0","2","2",269,"0% Con","biased","inc",1,654
"1112","Object",4,"100-0","2","2",270,"0% Con","unbiased","con",1,418
"1113","Object",4,"100-0","2","2",271,"0% Con","biased","inc",1,500
"1114","Object",4,"100-0","2","2",272,"0% Con","unbiased","inc",1,565
"1115","Object",4,"100-0","2","2",273,"0% Con","unbiased","con",1,433
"1116","Object",4,"100-0","2","2",274,"0% Con","biased","con",1,541
"1117","Object",4,"100-0","2","2",275,"0% Con","biased","inc",1,638
"1118","Object",4,"100-0","2","2",276,"0% Con","biased","inc",1,474
"1119","Object",4,"100-0","2","2",277,"0% Con","biased","con",1,693
"1120","Object",4,"100-0","2","2",278,"0% Con","unbiased","inc",1,516
"1121","Object",4,"100-0","2","2",279,"0% Con","unbiased","con",1,526
"1122","Object",4,"100-0","2","2",280,"0% Con","biased","con",1,518
"1123","Object",4,"100-0","2","2",282,"0% Con","biased","inc",1,488
"1124","Object",4,"100-0","2","2",283,"0% Con","biased","inc",1,426
"1125","Object",4,"100-0","2","2",284,"0% Con","unbiased","inc",1,497
"1126","Object",4,"100-0","2","2",285,"0% Con","unbiased","con",1,432
"1127","Object",4,"100-0","2","2",286,"0% Con","biased","con",1,650
"1128","Object",4,"100-0","2","2",287,"0% Con","biased","con",1,748
"1129","Object",4,"100-0","2","2",288,"0% Con","biased","inc",1,605
"1130","Object",4,"100-0","2","2",289,"0% Con","biased","con",0,659
"1131","Object",4,"100-0","2","2",290,"0% Con","biased","inc",1,529
"1132","Object",4,"100-0","2","2",291,"0% Con","biased","inc",1,496
"1133","Object",4,"100-0","2","2",292,"0% Con","unbiased","con",1,413
"1134","Object",4,"100-0","2","2",293,"0% Con","unbiased","inc",1,424
"1135","Object",4,"100-0","2","2",294,"0% Con","biased","con",1,718
"1136","Object",4,"100-0","2","2",296,"0% Con","unbiased","inc",0,493
"1137","Object",4,"100-0","2","2",297,"0% Con","biased","con",1,584
"1138","Object",4,"100-0","2","2",298,"0% Con","biased","con",1,509
"1139","Object",4,"100-0","2","2",299,"0% Con","unbiased","con",1,466
"1140","Object",4,"100-0","2","2",300,"0% Con","biased","inc",1,573
"1141","Object",4,"100-0","2","2",301,"0% Con","unbiased","inc",1,608
"1142","Object",4,"100-0","2","2",302,"0% Con","biased","con",1,437
"1143","Object",4,"100-0","2","2",303,"0% Con","unbiased","inc",1,617
"1144","Object",4,"100-0","2","2",304,"0% Con","biased","con",1,616
"1145","Object",4,"100-0","2","2",305,"0% Con","biased","con",1,438
"1146","Object",4,"100-0","2","2",306,"0% Con","biased","inc",1,519
"1147","Object",4,"100-0","2","2",307,"0% Con","biased","inc",0,448
"1148","Object",4,"100-0","2","2",308,"0% Con","biased","inc",1,459
"1149","Object",4,"100-0","2","2",309,"0% Con","unbiased","con",1,535
"1150","Object",4,"100-0","2","2",310,"0% Con","biased","con",1,460
"1151","Object",4,"100-0","2","2",312,"0% Con","unbiased","con",1,433
"1152","Object",4,"100-0","2","2",313,"0% Con","biased","inc",1,549
"1153","Object",5,"0-100","1","1",1,"0% Con","biased","con",1,4474
"1154","Object",5,"0-100","1","1",2,"0% Con","unbiased","inc",1,1608
"1155","Object",5,"0-100","1","1",3,"0% Con","biased","inc",1,1951
"1156","Object",5,"0-100","1","1",4,"0% Con","biased","inc",1,1731
"1157","Object",5,"0-100","1","1",5,"0% Con","biased","con",1,1281
"1158","Object",5,"0-100","1","1",6,"0% Con","unbiased","inc",1,977
"1159","Object",5,"0-100","1","1",7,"0% Con","unbiased","con",1,1002
"1160","Object",5,"0-100","1","1",8,"0% Con","biased","con",1,1138
"1161","Object",5,"0-100","1","1",9,"0% Con","biased","inc",1,931
"1162","Object",5,"0-100","1","1",10,"0% Con","biased","inc",1,1341
"1163","Object",5,"0-100","1","1",11,"0% Con","unbiased","con",1,1184
"1164","Object",5,"0-100","1","1",13,"0% Con","biased","con",1,881
"1165","Object",5,"0-100","1","1",14,"0% Con","unbiased","con",1,604
"1166","Object",5,"0-100","1","1",15,"0% Con","biased","inc",1,871
"1167","Object",5,"0-100","1","1",16,"0% Con","unbiased","inc",1,678
"1168","Object",5,"0-100","1","1",17,"0% Con","biased","con",1,954
"1169","Object",5,"0-100","1","1",18,"0% Con","biased","con",1,698
"1170","Object",5,"0-100","1","1",19,"0% Con","biased","con",1,775
"1171","Object",5,"0-100","1","1",20,"0% Con","biased","con",1,726
"1172","Object",5,"0-100","1","1",22,"0% Con","biased","inc",1,785
"1173","Object",5,"0-100","1","1",23,"0% Con","unbiased","inc",1,818
"1174","Object",5,"0-100","1","1",24,"0% Con","biased","inc",1,594
"1175","Object",5,"0-100","1","1",25,"0% Con","unbiased","con",1,722
"1176","Object",5,"0-100","1","1",26,"0% Con","biased","inc",1,740
"1177","Object",5,"0-100","1","1",27,"0% Con","unbiased","con",1,651
"1178","Object",5,"0-100","1","1",28,"0% Con","biased","con",1,954
"1179","Object",5,"0-100","1","1",29,"0% Con","unbiased","inc",1,1091
"1180","Object",5,"0-100","1","1",30,"0% Con","biased","con",1,699
"1181","Object",5,"0-100","1","1",31,"0% Con","biased","con",1,1527
"1182","Object",5,"0-100","1","1",32,"0% Con","biased","inc",1,708
"1183","Object",5,"0-100","1","1",33,"0% Con","unbiased","con",1,728
"1184","Object",5,"0-100","1","1",34,"0% Con","biased","con",1,891
"1185","Object",5,"0-100","1","1",35,"0% Con","biased","inc",1,968
"1186","Object",5,"0-100","1","1",36,"0% Con","unbiased","inc",1,746
"1187","Object",5,"0-100","1","1",37,"0% Con","biased","inc",1,632
"1188","Object",5,"0-100","1","1",39,"0% Con","biased","inc",1,1230
"1189","Object",5,"0-100","1","1",40,"0% Con","biased","con",1,1055
"1190","Object",5,"0-100","1","1",41,"0% Con","biased","con",1,980
"1191","Object",5,"0-100","1","1",42,"0% Con","unbiased","inc",1,625
"1192","Object",5,"0-100","1","1",43,"0% Con","biased","con",1,738
"1193","Object",5,"0-100","1","1",44,"0% Con","biased","inc",1,739
"1194","Object",5,"0-100","1","1",45,"0% Con","biased","inc",1,836
"1195","Object",5,"0-100","1","1",46,"0% Con","biased","con",1,663
"1196","Object",5,"0-100","1","1",47,"0% Con","biased","inc",1,716
"1197","Object",5,"0-100","1","1",48,"0% Con","biased","inc",1,786
"1198","Object",5,"0-100","1","1",50,"0% Con","unbiased","inc",1,641
"1199","Object",5,"0-100","1","1",51,"0% Con","unbiased","con",1,571
"1200","Object",5,"0-100","1","1",52,"0% Con","unbiased","con",1,627
"1201","Object",5,"0-100","1","1",53,"0% Con","biased","inc",1,1567
"1202","Object",5,"0-100","1","1",54,"0% Con","unbiased","con",1,588
"1203","Object",5,"0-100","1","1",55,"0% Con","biased","inc",1,639
"1204","Object",5,"0-100","1","1",56,"0% Con","unbiased","inc",1,628
"1205","Object",5,"0-100","1","1",57,"0% Con","unbiased","con",1,562
"1206","Object",5,"0-100","1","1",58,"0% Con","unbiased","inc",1,684
"1207","Object",5,"0-100","1","1",59,"0% Con","biased","inc",1,592
"1208","Object",5,"0-100","1","1",60,"0% Con","biased","con",1,983
"1209","Object",5,"0-100","1","1",61,"0% Con","biased","con",1,723
"1210","Object",5,"0-100","1","1",62,"0% Con","biased","inc",1,620
"1211","Object",5,"0-100","1","1",64,"0% Con","biased","con",1,1127
"1212","Object",5,"0-100","1","1",65,"0% Con","biased","con",1,547
"1213","Object",5,"0-100","1","1",66,"0% Con","unbiased","con",1,695
"1214","Object",5,"0-100","1","1",67,"0% Con","unbiased","con",1,539
"1215","Object",5,"0-100","1","1",68,"0% Con","biased","con",1,883
"1216","Object",5,"0-100","1","1",69,"0% Con","biased","inc",1,699
"1217","Object",5,"0-100","1","1",70,"0% Con","unbiased","inc",1,1051
"1218","Object",5,"0-100","1","1",71,"0% Con","unbiased","inc",1,675
"1219","Object",5,"0-100","1","1",72,"0% Con","biased","inc",1,659
"1220","Object",5,"0-100","1","1",73,"0% Con","biased","inc",1,621
"1221","Object",5,"0-100","1","1",74,"0% Con","biased","inc",1,685
"1222","Object",5,"0-100","1","1",75,"0% Con","biased","con",1,779
"1223","Object",5,"0-100","1","1",77,"0% Con","biased","con",1,647
"1224","Object",5,"0-100","1","1",78,"0% Con","biased","con",1,577
"1225","Object",5,"0-100","1","2",79,"0% Con","biased","con",1,503
"1226","Object",5,"0-100","1","2",80,"0% Con","unbiased","con",1,692
"1227","Object",5,"0-100","1","2",81,"0% Con","unbiased","con",1,587
"1228","Object",5,"0-100","1","2",82,"0% Con","biased","inc",1,676
"1229","Object",5,"0-100","1","2",83,"0% Con","biased","inc",1,636
"1230","Object",5,"0-100","1","2",84,"0% Con","unbiased","inc",1,536
"1231","Object",5,"0-100","1","2",85,"0% Con","biased","con",0,724
"1232","Object",5,"0-100","1","2",86,"0% Con","unbiased","inc",1,795
"1233","Object",5,"0-100","1","2",88,"0% Con","biased","inc",1,711
"1234","Object",5,"0-100","1","2",89,"0% Con","biased","con",1,668
"1235","Object",5,"0-100","1","2",90,"0% Con","biased","con",1,701
"1236","Object",5,"0-100","1","2",91,"0% Con","biased","inc",1,637
"1237","Object",5,"0-100","1","2",92,"0% Con","biased","inc",1,624
"1238","Object",5,"0-100","1","2",93,"0% Con","unbiased","con",1,667
"1239","Object",5,"0-100","1","2",94,"0% Con","biased","inc",1,645
"1240","Object",5,"0-100","1","2",95,"0% Con","unbiased","inc",1,598
"1241","Object",5,"0-100","1","2",96,"0% Con","biased","con",0,871
"1242","Object",5,"0-100","1","2",97,"0% Con","biased","con",1,840
"1243","Object",5,"0-100","1","2",99,"0% Con","biased","inc",1,944
"1244","Object",5,"0-100","1","2",100,"0% Con","biased","con",1,1107
"1245","Object",5,"0-100","1","2",101,"0% Con","biased","con",1,812
"1246","Object",5,"0-100","1","2",102,"0% Con","unbiased","inc",1,635
"1247","Object",5,"0-100","1","2",103,"0% Con","biased","inc",1,709
"1248","Object",5,"0-100","1","2",104,"0% Con","unbiased","con",1,600
"1249","Object",5,"0-100","1","2",105,"0% Con","biased","inc",1,807
"1250","Object",5,"0-100","1","2",106,"0% Con","biased","con",1,789
"1251","Object",5,"0-100","1","2",107,"0% Con","unbiased","inc",1,637
"1252","Object",5,"0-100","1","2",108,"0% Con","biased","inc",1,717
"1253","Object",5,"0-100","1","2",109,"0% Con","unbiased","con",1,952
"1254","Object",5,"0-100","1","2",110,"0% Con","biased","con",1,796
"1255","Object",5,"0-100","1","2",111,"0% Con","biased","inc",1,717
"1256","Object",5,"0-100","1","2",113,"0% Con","biased","inc",1,1690
"1257","Object",5,"0-100","1","2",114,"0% Con","biased","con",1,940
"1258","Object",5,"0-100","1","2",115,"0% Con","unbiased","con",1,708
"1259","Object",5,"0-100","1","2",116,"0% Con","biased","con",1,932
"1260","Object",5,"0-100","1","2",117,"0% Con","unbiased","inc",1,647
"1261","Object",5,"0-100","1","2",118,"0% Con","unbiased","inc",1,686
"1262","Object",5,"0-100","1","2",119,"0% Con","biased","inc",1,684
"1263","Object",5,"0-100","1","2",120,"0% Con","biased","con",1,607
"1264","Object",5,"0-100","1","2",121,"0% Con","unbiased","con",1,708
"1265","Object",5,"0-100","1","2",122,"0% Con","unbiased","inc",1,705
"1266","Object",5,"0-100","1","2",123,"0% Con","biased","con",1,923
"1267","Object",5,"0-100","1","2",124,"0% Con","biased","con",1,965
"1268","Object",5,"0-100","1","2",126,"0% Con","biased","inc",1,646
"1269","Object",5,"0-100","1","2",127,"0% Con","biased","inc",1,693
"1270","Object",5,"0-100","1","2",128,"0% Con","biased","con",1,775
"1271","Object",5,"0-100","1","2",129,"0% Con","biased","inc",1,661
"1272","Object",5,"0-100","1","2",130,"0% Con","unbiased","con",1,655
"1273","Object",5,"0-100","1","2",131,"0% Con","unbiased","inc",1,690
"1274","Object",5,"0-100","1","2",132,"0% Con","biased","inc",1,654
"1275","Object",5,"0-100","1","2",133,"0% Con","biased","inc",1,590
"1276","Object",5,"0-100","1","2",134,"0% Con","biased","con",1,772
"1277","Object",5,"0-100","1","2",135,"0% Con","biased","con",1,660
"1278","Object",5,"0-100","1","2",136,"0% Con","unbiased","con",1,663
"1279","Object",5,"0-100","1","2",137,"0% Con","unbiased","con",1,694
"1280","Object",5,"0-100","1","2",138,"0% Con","biased","inc",1,636
"1281","Object",5,"0-100","1","2",140,"0% Con","biased","inc",1,746
"1282","Object",5,"0-100","1","2",141,"0% Con","unbiased","inc",1,599
"1283","Object",5,"0-100","1","2",142,"0% Con","biased","con",1,772
"1284","Object",5,"0-100","1","2",143,"0% Con","biased","con",1,728
"1285","Object",5,"0-100","1","2",144,"0% Con","biased","inc",1,628
"1286","Object",5,"0-100","1","2",145,"0% Con","biased","inc",1,1088
"1287","Object",5,"0-100","1","2",146,"0% Con","biased","con",1,707
"1288","Object",5,"0-100","1","2",147,"0% Con","unbiased","inc",1,610
"1289","Object",5,"0-100","1","2",148,"0% Con","biased","inc",1,576
"1290","Object",5,"0-100","1","2",149,"0% Con","unbiased","con",1,504
"1291","Object",5,"0-100","1","2",150,"0% Con","biased","con",1,683
"1292","Object",5,"0-100","1","2",151,"0% Con","biased","con",1,548
"1293","Object",5,"0-100","1","2",152,"0% Con","biased","inc",0,620
"1294","Object",5,"0-100","1","2",153,"0% Con","biased","con",1,729
"1295","Object",5,"0-100","1","2",155,"0% Con","unbiased","inc",1,1030
"1296","Object",5,"0-100","1","2",156,"0% Con","unbiased","con",1,680
"1297","Object",5,"0-100","2","1",158,"100% Con","biased","con",1,1174
"1298","Object",5,"0-100","2","1",159,"100% Con","biased","con",1,952
"1299","Object",5,"0-100","2","1",160,"100% Con","biased","con",1,679
"1300","Object",5,"0-100","2","1",161,"100% Con","unbiased","inc",1,890
"1301","Object",5,"0-100","2","1",162,"100% Con","biased","inc",1,1041
"1302","Object",5,"0-100","2","1",163,"100% Con","biased","inc",1,880
"1303","Object",5,"0-100","2","1",164,"100% Con","biased","con",1,624
"1304","Object",5,"0-100","2","1",165,"100% Con","unbiased","con",1,578
"1305","Object",5,"0-100","2","1",167,"100% Con","unbiased","con",1,622
"1306","Object",5,"0-100","2","1",168,"100% Con","biased","inc",1,685
"1307","Object",5,"0-100","2","1",169,"100% Con","unbiased","inc",1,1707
"1308","Object",5,"0-100","2","1",170,"100% Con","biased","inc",1,764
"1309","Object",5,"0-100","2","1",171,"100% Con","unbiased","con",1,687
"1310","Object",5,"0-100","2","1",172,"100% Con","biased","inc",1,895
"1311","Object",5,"0-100","2","1",173,"100% Con","unbiased","con",1,658
"1312","Object",5,"0-100","2","1",174,"100% Con","biased","con",1,700
"1313","Object",5,"0-100","2","1",175,"100% Con","unbiased","inc",1,735
"1314","Object",5,"0-100","2","1",176,"100% Con","biased","inc",1,839
"1315","Object",5,"0-100","2","1",177,"100% Con","unbiased","inc",1,682
"1316","Object",5,"0-100","2","1",178,"100% Con","biased","inc",1,724
"1317","Object",5,"0-100","2","1",180,"100% Con","biased","con",1,820
"1318","Object",5,"0-100","2","1",181,"100% Con","biased","con",1,1207
"1319","Object",5,"0-100","2","1",182,"100% Con","biased","con",1,640
"1320","Object",5,"0-100","2","1",183,"100% Con","biased","inc",1,622
"1321","Object",5,"0-100","2","1",184,"100% Con","biased","con",1,580
"1322","Object",5,"0-100","2","1",185,"100% Con","unbiased","con",1,687
"1323","Object",5,"0-100","2","1",186,"100% Con","biased","con",0,624
"1324","Object",5,"0-100","2","1",187,"100% Con","biased","inc",1,742
"1325","Object",5,"0-100","2","1",188,"100% Con","unbiased","con",1,691
"1326","Object",5,"0-100","2","1",189,"100% Con","biased","inc",1,659
"1327","Object",5,"0-100","2","1",190,"100% Con","biased","inc",0,709
"1328","Object",5,"0-100","2","1",191,"100% Con","biased","inc",1,748
"1329","Object",5,"0-100","2","1",192,"100% Con","biased","con",1,690
"1330","Object",5,"0-100","2","1",194,"100% Con","unbiased","inc",1,855
"1331","Object",5,"0-100","2","1",195,"100% Con","biased","con",1,580
"1332","Object",5,"0-100","2","1",196,"100% Con","unbiased","inc",1,724
"1333","Object",5,"0-100","2","1",197,"100% Con","unbiased","con",1,578
"1334","Object",5,"0-100","2","1",198,"100% Con","biased","inc",1,686
"1335","Object",5,"0-100","2","1",199,"100% Con","unbiased","con",1,740
"1336","Object",5,"0-100","2","1",200,"100% Con","biased","inc",1,1092
"1337","Object",5,"0-100","2","1",201,"100% Con","biased","con",1,645
"1338","Object",5,"0-100","2","1",202,"100% Con","unbiased","inc",1,798
"1339","Object",5,"0-100","2","1",203,"100% Con","biased","inc",1,1006
"1340","Object",5,"0-100","2","1",205,"100% Con","biased","inc",1,710
"1341","Object",5,"0-100","2","1",206,"100% Con","unbiased","inc",1,769
"1342","Object",5,"0-100","2","1",207,"100% Con","biased","con",1,749
"1343","Object",5,"0-100","2","1",208,"100% Con","biased","con",1,698
"1344","Object",5,"0-100","2","1",209,"100% Con","biased","con",1,943
"1345","Object",5,"0-100","2","1",210,"100% Con","biased","inc",1,733
"1346","Object",5,"0-100","2","1",211,"100% Con","biased","con",1,599
"1347","Object",5,"0-100","2","1",212,"100% Con","biased","con",1,624
"1348","Object",5,"0-100","2","1",213,"100% Con","unbiased","inc",1,852
"1349","Object",5,"0-100","2","1",214,"100% Con","biased","inc",1,850
"1350","Object",5,"0-100","2","1",215,"100% Con","biased","inc",1,903
"1351","Object",5,"0-100","2","1",216,"100% Con","unbiased","con",1,595
"1352","Object",5,"0-100","2","1",217,"100% Con","biased","con",1,556
"1353","Object",5,"0-100","2","1",219,"100% Con","biased","con",1,646
"1354","Object",5,"0-100","2","1",220,"100% Con","biased","inc",1,1413
"1355","Object",5,"0-100","2","1",221,"100% Con","unbiased","con",1,687
"1356","Object",5,"0-100","2","1",222,"100% Con","unbiased","inc",1,1380
"1357","Object",5,"0-100","2","1",223,"100% Con","unbiased","inc",1,751
"1358","Object",5,"0-100","2","1",224,"100% Con","unbiased","con",1,1070
"1359","Object",5,"0-100","2","1",225,"100% Con","biased","inc",1,782
"1360","Object",5,"0-100","2","1",226,"100% Con","biased","con",1,659
"1361","Object",5,"0-100","2","1",227,"100% Con","biased","con",1,582
"1362","Object",5,"0-100","2","1",228,"100% Con","biased","con",1,532
"1363","Object",5,"0-100","2","1",229,"100% Con","unbiased","inc",1,691
"1364","Object",5,"0-100","2","1",230,"100% Con","unbiased","con",1,699
"1365","Object",5,"0-100","2","1",231,"100% Con","biased","con",1,707
"1366","Object",5,"0-100","2","1",233,"100% Con","biased","inc",1,769
"1367","Object",5,"0-100","2","1",234,"100% Con","biased","inc",1,763
"1368","Object",5,"0-100","2","1",235,"100% Con","biased","inc",1,539
"1369","Object",5,"0-100","2","2",236,"100% Con","biased","con",1,604
"1370","Object",5,"0-100","2","2",237,"100% Con","biased","con",1,542
"1371","Object",5,"0-100","2","2",238,"100% Con","biased","con",1,564
"1372","Object",5,"0-100","2","2",239,"100% Con","biased","con",1,557
"1373","Object",5,"0-100","2","2",240,"100% Con","biased","inc",1,685
"1374","Object",5,"0-100","2","2",241,"100% Con","biased","inc",1,717
"1375","Object",5,"0-100","2","2",242,"100% Con","unbiased","con",1,602
"1376","Object",5,"0-100","2","2",243,"100% Con","unbiased","con",1,740
"1377","Object",5,"0-100","2","2",244,"100% Con","biased","inc",1,709
"1378","Object",5,"0-100","2","2",245,"100% Con","biased","inc",1,616
"1379","Object",5,"0-100","2","2",246,"100% Con","unbiased","inc",1,758
"1380","Object",5,"0-100","2","2",248,"100% Con","unbiased","inc",1,926
"1381","Object",5,"0-100","2","2",249,"100% Con","unbiased","inc",1,598
"1382","Object",5,"0-100","2","2",250,"100% Con","biased","inc",1,1060
"1383","Object",5,"0-100","2","2",251,"100% Con","biased","inc",1,604
"1384","Object",5,"0-100","2","2",252,"100% Con","biased","con",1,635
"1385","Object",5,"0-100","2","2",253,"100% Con","unbiased","inc",1,604
"1386","Object",5,"0-100","2","2",254,"100% Con","biased","con",1,599
"1387","Object",5,"0-100","2","2",255,"100% Con","biased","con",1,633
"1388","Object",5,"0-100","2","2",256,"100% Con","biased","inc",1,801
"1389","Object",5,"0-100","2","2",257,"100% Con","unbiased","con",1,660
"1390","Object",5,"0-100","2","2",258,"100% Con","biased","inc",1,732
"1391","Object",5,"0-100","2","2",260,"100% Con","biased","con",1,568
"1392","Object",5,"0-100","2","2",261,"100% Con","unbiased","con",1,606
"1393","Object",5,"0-100","2","2",262,"100% Con","unbiased","con",1,587
"1394","Object",5,"0-100","2","2",263,"100% Con","biased","con",1,543
"1395","Object",5,"0-100","2","2",264,"100% Con","unbiased","con",1,591
"1396","Object",5,"0-100","2","2",265,"100% Con","biased","inc",1,617
"1397","Object",5,"0-100","2","2",266,"100% Con","biased","con",1,760
"1398","Object",5,"0-100","2","2",267,"100% Con","biased","inc",1,917
"1399","Object",5,"0-100","2","2",268,"100% Con","biased","inc",1,788
"1400","Object",5,"0-100","2","2",269,"100% Con","unbiased","inc",1,647
"1401","Object",5,"0-100","2","2",270,"100% Con","biased","con",1,1143
"1402","Object",5,"0-100","2","2",271,"100% Con","biased","con",1,671
"1403","Object",5,"0-100","2","2",272,"100% Con","unbiased","inc",1,892
"1404","Object",5,"0-100","2","2",274,"100% Con","biased","inc",1,799
"1405","Object",5,"0-100","2","2",275,"100% Con","unbiased","con",0,875
"1406","Object",5,"0-100","2","2",276,"100% Con","biased","inc",1,919
"1407","Object",5,"0-100","2","2",277,"100% Con","unbiased","inc",1,759
"1408","Object",5,"0-100","2","2",278,"100% Con","biased","inc",1,911
"1409","Object",5,"0-100","2","2",279,"100% Con","biased","con",1,678
"1410","Object",5,"0-100","2","2",280,"100% Con","biased","inc",1,830
"1411","Object",5,"0-100","2","2",281,"100% Con","biased","con",1,778
"1412","Object",5,"0-100","2","2",282,"100% Con","biased","con",1,579
"1413","Object",5,"0-100","2","2",283,"100% Con","biased","con",1,563
"1414","Object",5,"0-100","2","2",285,"100% Con","biased","inc",1,954
"1415","Object",5,"0-100","2","2",286,"100% Con","unbiased","con",1,637
"1416","Object",5,"0-100","2","2",287,"100% Con","unbiased","inc",1,592
"1417","Object",5,"0-100","2","2",288,"100% Con","biased","inc",1,1062
"1418","Object",5,"0-100","2","2",289,"100% Con","biased","con",1,619
"1419","Object",5,"0-100","2","2",290,"100% Con","biased","con",1,542
"1420","Object",5,"0-100","2","2",291,"100% Con","unbiased","inc",1,675
"1421","Object",5,"0-100","2","2",292,"100% Con","biased","inc",1,860
"1422","Object",5,"0-100","2","2",293,"100% Con","biased","con",1,623
"1423","Object",5,"0-100","2","2",294,"100% Con","unbiased","inc",1,635
"1424","Object",5,"0-100","2","2",295,"100% Con","biased","inc",0,751
"1425","Object",5,"0-100","2","2",296,"100% Con","biased","con",1,684
"1426","Object",5,"0-100","2","2",297,"100% Con","unbiased","con",1,707
"1427","Object",5,"0-100","2","2",299,"100% Con","biased","inc",1,840
"1428","Object",5,"0-100","2","2",300,"100% Con","unbiased","con",1,615
"1429","Object",5,"0-100","2","2",301,"100% Con","biased","inc",1,682
"1430","Object",5,"0-100","2","2",302,"100% Con","biased","con",1,609
"1431","Object",5,"0-100","2","2",303,"100% Con","biased","con",1,571
"1432","Object",5,"0-100","2","2",304,"100% Con","unbiased","inc",1,670
"1433","Object",5,"0-100","2","2",305,"100% Con","unbiased","con",1,550
"1434","Object",5,"0-100","2","2",306,"100% Con","unbiased","con",1,530
"1435","Object",5,"0-100","2","2",307,"100% Con","biased","con",1,532
"1436","Object",5,"0-100","2","2",308,"100% Con","biased","con",1,559
"1437","Object",5,"0-100","2","2",309,"100% Con","unbiased","inc",1,753
"1438","Object",5,"0-100","2","2",310,"100% Con","biased","inc",1,1396
"1439","Object",5,"0-100","2","2",312,"100% Con","biased","inc",1,862
"1440","Object",5,"0-100","2","2",313,"100% Con","biased","inc",1,655
"1441","Object",6,"100-0","1","1",1,"100% Con","biased","con",1,1096
"1442","Object",6,"100-0","1","1",2,"100% Con","biased","con",1,746
"1443","Object",6,"100-0","1","1",3,"100% Con","biased","con",1,545
"1444","Object",6,"100-0","1","1",4,"100% Con","biased","con",1,555
"1445","Object",6,"100-0","1","1",5,"100% Con","biased","inc",1,910
"1446","Object",6,"100-0","1","1",6,"100% Con","biased","inc",1,713
"1447","Object",6,"100-0","1","1",7,"100% Con","biased","inc",1,702
"1448","Object",6,"100-0","1","1",8,"100% Con","unbiased","con",1,541
"1449","Object",6,"100-0","1","1",10,"100% Con","unbiased","inc",1,744
"1450","Object",6,"100-0","1","1",11,"100% Con","unbiased","inc",1,559
"1451","Object",6,"100-0","1","1",12,"100% Con","unbiased","con",1,556
"1452","Object",6,"100-0","1","1",13,"100% Con","biased","inc",1,625
"1453","Object",6,"100-0","1","1",14,"100% Con","unbiased","inc",1,705
"1454","Object",6,"100-0","1","1",15,"100% Con","unbiased","con",1,577
"1455","Object",6,"100-0","1","1",16,"100% Con","biased","inc",1,680
"1456","Object",6,"100-0","1","1",17,"100% Con","biased","con",1,624
